Name,Run,Session,Trial,AngleValue,Rt1,Resp1,Acc,DurIntFeed,PreviousTrialR,PreviousTrialCoh
1,1,1,1,-0.8,0.444816,1,1.0,0.1,0.0,-100.0
1,1,1,2,-0.8,0.440646,1,1.0,0.1,1.0,-0.8
1,1,1,3,0.2,0.38947,1,-1.0,0.1,1.0,-0.8
1,1,1,4,-0.2,0.428172,1,1.0,1.1,-1.0,0.2
1,1,1,5,-0.2,0.67398,0,-1.0,0.1,1.0,-0.2
1,1,1,6,0.2,0.452992,1,-1.0,0.1,-1.0,-0.2
1,1,1,7,0.8,0.48915,0,1.0,1.1,-1.0,0.2
1,1,1,8,0.2,0.523934,1,-1.0,0.1,1.0,0.8
1,1,1,9,0.2,0.56511,0,1.0,0.1,-1.0,0.2
1,1,1,10,0.2,0.724575,1,-1.0,0.1,1.0,0.2
1,1,1,11,-0.2,0.654016,1,1.0,0.1,-1.0,0.2
1,1,1,12,-1.6,0.506056,1,1.0,1.1,1.0,-0.2
1,1,1,13,0.2,0.452189,1,-1.0,0.1,1.0,-1.6
1,1,1,14,1.6,0.416227,0,1.0,0.1,-1.0,0.2
1,1,1,15,-0.2,0.533594,1,1.0,0.1,1.0,1.6
1,1,1,16,1.6,0.422185,0,1.0,0.1,1.0,-0.2
1,1,1,17,-0.2,0.555651,1,1.0,0.1,1.0,1.6
1,1,1,18,0.8,0.411669,0,1.0,1.1,1.0,-0.2
1,1,1,19,-0.2,0.513759,1,1.0,0.1,1.0,0.8
1,1,1,20,-0.2,0.523958,1,1.0,0.1,1.0,-0.2
1,1,1,21,-0.8,0.461082,1,1.0,1.1,1.0,-0.2
1,1,1,22,-1.6,0.417274,1,1.0,0.1,1.0,-0.8
1,1,1,23,-0.8,0.518743,1,1.0,0.1,1.0,-1.6
1,1,1,24,0.8,0.464256,0,1.0,0.1,1.0,-0.8
1,1,1,25,0.8,0.523985,1,-1.0,0.1,1.0,0.8
1,1,1,26,0.2,0.445542,0,1.0,0.1,-1.0,0.8
1,1,1,27,-1.6,0.53818,1,1.0,0.1,1.0,0.2
1,1,1,28,0.8,0.451041,0,1.0,0.1,1.0,-1.6
1,1,1,29,1.6,0.559065,0,1.0,0.1,1.0,0.8
1,1,1,30,0.8,0.583251,0,1.0,0.1,1.0,1.6
1,1,1,31,-1.6,0.501837,1,1.0,1.1,1.0,0.8
1,1,1,32,-0.2,0.695877,1,1.0,0.1,1.0,-1.6
1,1,1,33,0.2,0.506679,1,-1.0,0.1,1.0,-0.2
1,1,1,34,0.8,0.388829,0,1.0,1.1,-1.0,0.2
1,1,1,35,-0.8,0.379676,1,1.0,0.1,1.0,0.8
1,1,1,36,-0.8,0.394838,1,1.0,0.1,1.0,-0.8
1,1,1,37,0.2,0.46554,0,1.0,0.1,1.0,-0.8
1,1,1,38,-0.2,0.412897,1,1.0,0.1,1.0,0.2
1,1,1,39,0.2,0.419267,0,1.0,0.1,1.0,-0.2
1,1,1,40,-0.8,0.360408,1,1.0,0.1,1.0,0.2
1,1,1,41,-0.8,0.336459,0,-1.0,0.1,1.0,-0.8
1,1,1,42,0.8,0.361164,0,1.0,0.1,-1.0,-0.8
1,1,1,43,0.8,0.449561,0,1.0,0.1,1.0,0.8
1,1,1,44,1.6,0.63749,0,1.0,0.1,1.0,0.8
1,1,1,45,-1.6,0.378061,1,1.0,0.1,1.0,1.6
1,1,1,46,-0.8,0.497546,0,-1.0,0.1,1.0,-1.6
1,1,1,47,-1.6,0.356219,1,1.0,1.1,-1.0,-0.8
1,1,1,48,-0.2,0.532306,0,-1.0,0.1,1.0,-1.6
1,1,1,49,-0.8,0.396866,1,1.0,0.1,-1.0,-0.2
1,1,1,50,0.8,0.395734,0,1.0,0.1,1.0,-0.8
1,1,1,51,-1.6,0.418286,1,1.0,0.1,1.0,0.8
1,1,1,52,-1.6,0.479692,1,1.0,0.1,1.0,-1.6
1,1,1,53,0.2,0.403365,0,1.0,0.1,1.0,-1.6
1,1,1,54,0.8,0.425297,0,1.0,0.1,1.0,0.2
1,1,1,55,-0.8,0.382557,1,1.0,1.1,1.0,0.8
1,1,1,56,-0.8,0.437412,1,1.0,0.1,1.0,-0.8
1,1,1,57,-0.8,0.538163,1,1.0,0.1,1.0,-0.8
1,1,1,58,-0.8,0.570911,0,-1.0,0.1,1.0,-0.8
1,1,1,59,-0.2,0.490487,0,-1.0,0.1,-1.0,-0.8
1,1,1,60,1.6,0.580967,0,1.0,0.1,-1.0,-0.2
1,1,1,61,0.2,0.508368,0,1.0,1.1,1.0,1.6
1,1,1,62,-1.6,0.414485,1,1.0,0.1,1.0,0.2
1,1,1,63,-0.2,0.572481,0,-1.0,0.1,1.0,-1.6
1,1,1,64,-1.6,0.57173,1,1.0,1.1,-1.0,-0.2
1,1,1,65,-0.2,0.467464,0,-1.0,0.1,1.0,-1.6
1,1,1,66,-0.2,0.366712,1,1.0,0.1,-1.0,-0.2
1,1,1,67,1.6,0.414066,0,1.0,0.1,1.0,-0.2
1,1,1,68,0.8,0.419947,1,-1.0,0.1,1.0,1.6
1,1,1,69,-0.2,0.449539,0,-1.0,0.1,-1.0,0.8
1,1,1,70,0.8,0.389537,1,-1.0,0.1,-1.0,-0.2
1,1,1,71,-0.8,0.492175,1,1.0,0.1,-1.0,0.8
1,1,1,72,-0.2,0.534964,1,1.0,0.1,1.0,-0.8
1,1,1,73,1.6,0.439813,0,1.0,0.1,1.0,-0.2
1,1,1,74,1.6,0.460256,1,-1.0,1.1,1.0,1.6
1,1,1,75,0.2,0.456557,1,-1.0,0.1,-1.0,1.6
1,1,1,76,0.2,0.460725,0,1.0,0.1,-1.0,0.2
1,1,1,77,-0.2,0.616726,1,1.0,0.1,1.0,0.2
1,1,1,78,1.6,0.430083,0,1.0,1.1,1.0,-0.2
1,1,1,79,-1.6,0.395416,1,1.0,0.1,1.0,1.6
1,1,1,80,0.8,0.458058,0,1.0,0.1,1.0,-1.6
1,1,1,81,0.2,0.438058,1,-1.0,0.1,1.0,0.8
1,1,1,82,0.8,0.435057,0,1.0,0.1,-1.0,0.2
1,1,1,83,-0.2,0.487689,1,1.0,0.1,1.0,0.8
1,1,1,84,0.8,0.434355,0,1.0,1.1,1.0,-0.2
1,1,1,85,0.8,0.463516,0,1.0,1.1,1.0,0.8
1,1,1,86,-0.8,0.419183,1,1.0,0.1,1.0,0.8
1,1,1,87,0.2,0.392839,0,1.0,1.1,1.0,-0.8
1,1,1,88,1.6,0.503524,0,1.0,1.1,1.0,0.2
1,1,1,89,-0.2,0.417457,1,1.0,0.1,1.0,1.6
1,1,1,90,-0.8,0.422807,0,-1.0,1.1,1.0,-0.2
1,1,1,91,0.2,0.404307,0,1.0,0.1,-1.0,-0.8
1,1,1,92,-0.2,0.562248,1,1.0,0.1,1.0,0.2
1,1,1,93,0.8,0.642402,0,1.0,1.1,1.0,-0.2
1,1,1,94,-0.2,0.423258,0,-1.0,0.1,1.0,0.8
1,1,1,95,-0.2,0.604509,0,-1.0,0.1,-1.0,-0.2
1,1,1,96,0.2,0.458666,0,1.0,0.1,-1.0,-0.2
1,1,1,97,1.6,0.462821,0,1.0,1.1,1.0,0.2
1,1,1,98,-0.8,0.51472,1,1.0,0.1,1.0,1.6
1,1,1,99,0.8,0.460824,0,1.0,0.1,1.0,-0.8
1,1,1,100,0.8,0.440764,0,1.0,1.1,1.0,0.8
1,1,1,101,1.6,0.437941,0,1.0,0.1,1.0,0.8
1,1,1,102,-1.6,0.418439,1,1.0,0.1,1.0,1.6
1,1,1,103,-0.2,0.45576,0,-1.0,0.1,1.0,-1.6
1,1,1,104,0.2,0.459744,1,-1.0,0.1,-1.0,-0.2
1,1,1,105,-0.8,0.455766,1,1.0,0.1,-1.0,0.2
1,1,1,106,-0.8,0.52386,0,-1.0,0.1,1.0,-0.8
1,1,1,107,0.2,0.565311,1,-1.0,0.1,-1.0,-0.8
1,1,1,109,0.2,0.589481,0,1.0,1.1,0.0,0.2
1,1,1,110,0.2,0.532163,1,-1.0,0.1,1.0,0.2
1,2,1,1,-1.6,0.617948,1,1.0,0.1,0.0,-100.0
1,2,1,2,-0.8,0.879348,1,1.0,0.1,1.0,-1.6
1,2,1,4,1.6,0.43718,0,1.0,0.1,0.0,1.6
1,2,1,5,-1.6,0.385683,1,1.0,0.1,1.0,1.6
1,2,1,6,-0.2,0.384286,0,-1.0,0.1,1.0,-1.6
1,2,1,7,0.8,0.471025,0,1.0,0.1,-1.0,-0.2
1,2,1,8,-0.8,0.378179,1,1.0,0.1,1.0,0.8
1,2,1,9,0.8,0.345764,0,1.0,0.1,1.0,-0.8
1,2,1,10,0.8,0.314408,1,-1.0,1.1,1.0,0.8
1,2,1,11,0.2,0.332609,0,1.0,0.1,-1.0,0.8
1,2,1,12,-1.6,0.405352,1,1.0,0.1,1.0,0.2
1,2,1,13,-0.2,0.299333,0,-1.0,0.1,1.0,-1.6
1,2,1,14,0.8,0.253423,1,-1.0,1.1,-1.0,-0.2
1,2,1,15,0.2,0.305443,0,1.0,1.1,-1.0,0.8
1,2,1,16,-0.2,0.379556,0,-1.0,0.1,1.0,0.2
1,2,1,17,0.2,0.234826,1,-1.0,0.1,-1.0,-0.2
1,2,1,18,-0.8,0.415554,1,1.0,0.1,-1.0,0.2
1,2,1,19,0.2,0.245058,0,1.0,0.1,1.0,-0.8
1,2,1,20,1.6,0.177754,1,-1.0,0.1,1.0,0.2
1,2,1,21,0.8,0.145071,0,1.0,0.1,-1.0,1.6
1,2,1,22,-0.8,0.241932,1,1.0,0.1,1.0,0.8
1,2,1,23,0.2,0.190772,0,1.0,1.1,1.0,-0.8
1,2,1,24,-0.2,0.301405,0,-1.0,0.1,1.0,0.2
1,2,1,25,1.6,0.255055,1,-1.0,0.1,-1.0,-0.2
1,2,1,26,-1.6,0.219643,0,-1.0,1.1,-1.0,1.6
1,2,1,27,-0.8,0.520875,0,-1.0,0.1,-1.0,-1.6
1,2,1,28,0.8,0.314386,0,1.0,0.1,-1.0,-0.8
1,2,1,29,-1.6,0.276412,0,-1.0,0.1,1.0,0.8
1,2,1,30,-0.2,0.287514,1,1.0,0.1,-1.0,-1.6
1,2,1,31,0.8,0.346341,0,1.0,0.1,1.0,-0.2
1,2,1,32,0.2,0.171088,0,1.0,1.1,1.0,0.8
1,2,1,33,-0.8,0.274509,0,-1.0,1.1,1.0,0.2
1,2,1,34,-0.2,0.389965,0,-1.0,0.1,-1.0,-0.8
1,2,1,35,-0.2,0.396684,0,-1.0,0.1,-1.0,-0.2
1,2,1,36,-0.2,0.211475,0,-1.0,0.1,-1.0,-0.2
1,2,1,37,0.2,0.265408,0,1.0,0.1,-1.0,-0.2
1,2,1,38,-0.8,0.277606,0,-1.0,0.1,1.0,0.2
1,2,1,39,0.8,0.312658,0,1.0,0.1,-1.0,-0.8
1,2,1,40,0.2,0.42659,1,-1.0,0.1,1.0,0.8
1,2,1,41,-0.8,0.120302,0,-1.0,1.1,-1.0,0.2
1,2,1,42,0.2,0.465654,1,-1.0,0.1,-1.0,-0.8
1,2,1,43,1.6,0.204908,0,1.0,0.1,-1.0,0.2
1,2,1,44,0.8,0.355211,1,-1.0,0.1,1.0,1.6
1,2,1,46,-0.2,0.392603,1,1.0,0.1,0.0,0.2
1,2,1,47,-0.8,0.231494,0,-1.0,1.1,1.0,-0.2
1,2,1,48,0.2,0.396697,0,1.0,0.1,-1.0,-0.8
1,2,1,49,-0.8,0.411585,1,1.0,0.1,1.0,0.2
1,2,1,50,-0.2,0.185653,0,-1.0,0.1,1.0,-0.8
1,2,1,51,1.6,0.248354,1,-1.0,0.1,-1.0,-0.2
1,2,1,52,0.8,0.229027,0,1.0,1.1,-1.0,1.6
1,2,1,53,0.8,0.53046,1,-1.0,1.1,1.0,0.8
1,2,1,54,1.6,1.51583,0,1.0,1.1,-1.0,0.8
1,2,1,55,-0.8,0.333364,1,1.0,0.1,1.0,1.6
1,2,1,56,-0.2,0.269984,0,-1.0,0.1,1.0,-0.8
1,2,1,57,0.2,0.177403,1,-1.0,0.1,-1.0,-0.2
1,2,1,58,1.6,0.384802,0,1.0,1.1,-1.0,0.2
1,2,1,59,0.2,0.319493,1,-1.0,1.1,1.0,1.6
1,2,1,60,-0.2,0.313018,0,-1.0,0.1,-1.0,0.2
1,2,1,61,0.2,0.546993,1,-1.0,0.1,-1.0,-0.2
1,2,1,62,0.8,0.267703,0,1.0,0.1,-1.0,0.2
1,2,1,63,0.2,0.215123,1,-1.0,1.1,1.0,0.8
1,2,1,64,-1.6,0.636484,1,1.0,0.1,-1.0,0.2
1,2,1,65,1.6,0.369414,0,1.0,0.1,1.0,-1.6
1,2,1,66,-1.6,0.384498,1,1.0,1.1,1.0,1.6
1,2,1,67,-0.2,0.3275,0,-1.0,0.1,1.0,-1.6
1,2,1,68,-0.8,0.529059,0,-1.0,0.1,-1.0,-0.2
1,2,1,69,-0.2,0.3461,1,1.0,0.1,-1.0,-0.8
1,2,1,70,0.8,0.330965,0,1.0,0.1,1.0,-0.2
1,2,1,71,-0.8,0.364221,1,1.0,0.1,1.0,0.8
1,2,1,72,0.8,0.332466,0,1.0,0.1,1.0,-0.8
1,2,1,73,0.2,0.349055,1,-1.0,0.1,1.0,0.8
1,2,1,74,-0.2,0.293225,0,-1.0,0.1,-1.0,0.2
1,2,1,75,-0.8,0.367833,1,1.0,0.1,-1.0,-0.2
1,2,1,76,-0.8,0.29519,0,-1.0,0.1,1.0,-0.8
1,2,1,77,0.8,0.417735,1,-1.0,0.1,-1.0,-0.8
1,2,1,78,-1.6,0.367412,0,-1.0,0.1,-1.0,0.8
1,2,1,79,0.2,0.446689,1,-1.0,0.1,-1.0,-1.6
1,2,1,80,0.2,0.555424,0,1.0,1.1,-1.0,0.2
1,2,1,81,0.2,0.443514,1,-1.0,0.1,1.0,0.2
1,2,1,82,1.6,0.368219,0,1.0,0.1,-1.0,0.2
1,2,1,83,-0.2,0.399512,1,1.0,0.1,1.0,1.6
1,2,1,84,-0.8,0.293671,0,-1.0,0.1,1.0,-0.2
1,2,1,85,0.8,0.312374,1,-1.0,0.1,-1.0,-0.8
1,2,1,86,0.8,0.378529,0,1.0,0.1,-1.0,0.8
1,2,1,87,-0.2,0.313909,1,1.0,0.1,1.0,0.8
1,2,1,88,-1.6,0.291858,0,-1.0,0.1,1.0,-0.2
1,2,1,89,-0.2,0.294725,1,1.0,1.1,-1.0,-1.6
1,2,1,90,-0.8,0.537511,0,-1.0,0.1,1.0,-0.2
1,2,1,91,-0.2,0.466049,0,-1.0,0.1,-1.0,-0.8
1,2,1,92,-0.2,0.461309,1,1.0,0.1,-1.0,-0.2
1,2,1,93,-0.8,0.337512,0,-1.0,0.1,1.0,-0.2
1,2,1,94,0.2,0.354234,1,-1.0,0.1,-1.0,-0.8
1,2,1,95,-0.2,0.154276,0,-1.0,0.1,-1.0,0.2
1,2,1,96,0.8,0.40228,1,-1.0,1.1,-1.0,-0.2
1,2,1,97,-0.8,0.336387,0,-1.0,0.1,-1.0,0.8
1,2,1,98,0.2,0.545075,1,-1.0,0.1,-1.0,-0.8
1,2,1,99,-1.6,0.393939,0,-1.0,1.1,-1.0,0.2
1,2,1,100,0.8,0.552639,0,1.0,1.1,-1.0,-1.6
1,2,1,101,0.2,0.568659,1,-1.0,0.1,1.0,0.8
1,2,1,102,1.6,0.479961,0,1.0,0.1,-1.0,0.2
1,2,1,103,-1.6,0.467503,1,1.0,0.1,1.0,1.6
1,2,1,104,1.6,0.33476,0,1.0,0.1,1.0,-1.6
1,2,1,105,-0.2,0.3835,1,1.0,0.1,1.0,1.6
1,2,1,106,0.2,0.30224,0,1.0,0.1,1.0,-0.2
1,2,1,107,-0.2,0.296447,1,1.0,0.1,1.0,0.2
1,2,1,108,-1.6,0.299162,0,-1.0,0.1,1.0,-0.2
1,2,1,109,0.8,0.469244,0,1.0,0.1,-1.0,-1.6
1,2,1,110,-0.8,0.424608,1,1.0,0.1,1.0,0.8
1,2,2,1,0.8,0.408741,0,1.0,0.1,0.0,-100.0
1,2,2,2,0.2,0.470943,0,1.0,1.1,1.0,0.8
1,2,2,3,0.8,0.410436,0,1.0,0.1,1.0,0.2
1,2,2,4,-0.8,0.768339,1,1.0,1.1,1.0,0.8
1,2,2,5,-0.2,0.439867,0,-1.0,0.1,1.0,-0.8
1,2,2,6,0.2,0.484625,0,1.0,0.1,-1.0,-0.2
1,2,2,7,1.6,0.415303,0,1.0,0.1,1.0,0.2
1,2,2,8,0.8,0.47744,0,1.0,0.1,1.0,1.6
1,2,2,9,1.6,0.416604,0,1.0,0.1,1.0,0.8
1,2,2,10,0.2,0.686012,1,-1.0,1.1,1.0,1.6
1,2,2,11,0.2,0.71276,0,1.0,0.1,-1.0,0.2
1,2,2,12,0.8,0.411156,0,1.0,1.1,1.0,0.2
1,2,2,13,-1.6,0.489165,1,1.0,0.1,1.0,0.8
1,2,2,14,0.8,0.516031,0,1.0,0.1,1.0,-1.6
1,2,2,15,-0.2,0.517165,1,1.0,0.1,1.0,0.8
1,2,2,16,-1.6,0.446473,1,1.0,0.1,1.0,-0.2
1,2,2,17,0.2,0.427375,0,1.0,0.1,1.0,-1.6
1,2,2,18,-0.8,0.432615,1,1.0,0.1,1.0,0.2
1,2,2,19,-1.6,0.453414,0,-1.0,0.1,1.0,-0.8
1,2,2,20,0.2,0.481455,0,1.0,0.1,-1.0,-1.6
1,2,2,21,-0.8,0.436774,1,1.0,0.1,1.0,0.2
1,2,2,22,-0.2,0.39351,0,-1.0,1.1,1.0,-0.8
1,2,2,23,-0.2,0.584206,0,-1.0,0.1,-1.0,-0.2
1,2,2,24,-0.2,0.511026,0,-1.0,0.1,-1.0,-0.2
1,2,2,25,-0.2,0.561205,0,-1.0,0.1,-1.0,-0.2
1,2,2,26,0.2,0.585211,0,1.0,0.1,-1.0,-0.2
1,2,2,27,-0.8,0.591767,1,1.0,0.1,1.0,0.2
1,2,2,28,-0.8,0.478578,0,-1.0,0.1,1.0,-0.8
1,2,2,29,-1.6,0.434698,1,1.0,0.1,-1.0,-0.8
1,2,2,30,-0.2,0.431455,0,-1.0,0.1,1.0,-1.6
1,2,2,31,0.8,0.500814,0,1.0,1.1,-1.0,-0.2
1,2,2,32,-0.8,0.446862,1,1.0,0.1,1.0,0.8
1,2,2,33,0.2,0.443744,0,1.0,0.1,1.0,-0.8
1,2,2,34,0.2,0.51231,1,-1.0,0.1,1.0,0.2
1,2,2,35,0.8,0.450479,0,1.0,0.1,-1.0,0.2
1,2,2,36,0.8,0.52643,0,1.0,1.1,1.0,0.8
1,2,2,37,-0.8,0.503786,1,1.0,0.1,1.0,0.8
1,2,2,38,-0.8,0.473924,0,-1.0,1.1,1.0,-0.8
1,2,2,39,-0.2,0.56537,0,-1.0,0.1,-1.0,-0.8
1,2,2,40,-0.2,0.605254,1,1.0,0.1,-1.0,-0.2
1,2,2,41,0.8,0.65963,0,1.0,0.1,1.0,-0.2
1,2,2,42,0.8,0.679514,0,1.0,0.1,1.0,0.8
1,2,2,43,0.2,0.635057,0,1.0,0.1,1.0,0.8
1,2,2,44,-0.8,0.511928,1,1.0,0.1,1.0,0.2
1,2,2,45,0.2,0.561724,0,1.0,0.1,1.0,-0.8
1,2,2,46,-0.8,0.673739,1,1.0,1.1,1.0,0.2
1,2,2,47,-0.2,0.445155,0,-1.0,0.1,1.0,-0.8
1,2,2,48,-0.2,0.585974,1,1.0,0.1,-1.0,-0.2
1,2,2,49,0.2,0.536694,0,1.0,0.1,1.0,-0.2
1,2,2,50,1.6,0.497205,0,1.0,0.1,1.0,0.2
1,2,2,51,0.8,0.532026,0,1.0,0.1,1.0,1.6
1,2,2,52,1.6,0.516757,0,1.0,0.1,1.0,0.8
1,2,2,53,-0.8,0.566395,0,-1.0,0.1,1.0,1.6
1,2,2,54,0.2,0.493456,0,1.0,0.1,-1.0,-0.8
1,2,2,55,-1.6,0.440595,1,1.0,0.1,1.0,0.2
1,2,2,56,0.8,0.445352,0,1.0,0.1,1.0,-1.6
1,2,2,57,0.2,0.537867,0,1.0,1.1,1.0,0.8
1,2,2,58,0.8,0.490508,0,1.0,1.1,1.0,0.2
1,2,2,59,1.6,0.493419,0,1.0,0.1,1.0,0.8
1,2,2,60,1.6,0.455978,0,1.0,1.1,1.0,1.6
1,2,2,61,-0.2,0.564233,0,-1.0,0.1,1.0,1.6
1,2,2,62,-1.6,0.54802,1,1.0,0.1,-1.0,-0.2
1,2,2,63,0.2,0.588877,0,1.0,1.1,1.0,-1.6
1,2,2,64,-0.8,0.491719,1,1.0,0.1,1.0,0.2
1,2,2,65,-0.8,0.582346,1,1.0,0.1,1.0,-0.8
1,2,2,66,-0.2,0.589769,0,-1.0,0.1,1.0,-0.8
1,2,2,67,-1.6,0.428486,1,1.0,0.1,-1.0,-0.2
1,2,2,68,0.8,0.5381,0,1.0,1.1,1.0,-1.6
1,2,2,69,0.8,0.522562,0,1.0,0.1,1.0,0.8
1,2,2,70,0.2,0.659976,1,-1.0,1.1,1.0,0.8
1,2,2,71,-0.2,0.512079,0,-1.0,0.1,-1.0,0.2
1,2,2,72,0.8,0.498394,0,1.0,0.1,-1.0,-0.2
1,2,2,73,0.2,0.644798,1,-1.0,0.1,1.0,0.8
1,2,2,74,1.6,0.433761,0,1.0,1.1,-1.0,0.2
1,2,2,75,1.6,0.462353,0,1.0,0.1,1.0,1.6
1,2,2,76,-0.2,0.570476,1,1.0,0.1,1.0,1.6
1,2,2,77,0.2,0.521862,0,1.0,0.1,1.0,-0.2
1,2,2,78,-0.2,0.763063,1,1.0,0.1,1.0,0.2
1,2,2,79,0.2,0.475452,0,1.0,0.1,1.0,-0.2
1,2,2,80,0.8,0.48671,0,1.0,0.1,1.0,0.2
1,2,2,81,0.2,0.473426,0,1.0,0.1,1.0,0.8
1,2,2,82,-1.6,0.508745,1,1.0,0.1,1.0,0.2
1,2,2,83,0.8,0.494798,0,1.0,1.1,1.0,-1.6
1,2,2,84,-1.6,0.489694,1,1.0,0.1,1.0,0.8
1,2,2,85,-0.2,0.740265,1,1.0,0.1,1.0,-1.6
1,2,2,86,0.2,0.692948,0,1.0,0.1,1.0,-0.2
1,2,2,87,0.8,0.479959,0,1.0,0.1,1.0,0.2
1,2,2,88,-0.2,0.555126,1,1.0,0.1,1.0,0.8
1,2,2,89,0.2,0.47518,0,1.0,0.1,1.0,-0.2
1,2,2,90,1.6,0.45434,0,1.0,0.1,1.0,0.2
1,2,2,91,-0.8,0.490433,1,1.0,1.1,1.0,1.6
1,2,2,92,-1.6,0.605274,1,1.0,1.1,1.0,-0.8
1,2,2,93,-0.8,0.403602,0,-1.0,1.1,1.0,-1.6
1,2,2,94,-0.2,0.425641,0,-1.0,1.1,-1.0,-0.8
1,2,2,96,1.6,0.449767,0,1.0,0.1,0.0,-0.8
1,2,2,97,-1.6,0.485742,1,1.0,0.1,1.0,1.6
1,2,2,98,0.2,0.472513,0,1.0,0.1,1.0,-1.6
1,2,2,99,-0.8,0.443843,0,-1.0,0.1,1.0,0.2
1,2,2,100,0.8,0.424642,0,1.0,0.1,-1.0,-0.8
1,2,2,101,-0.8,0.613758,1,1.0,0.1,1.0,0.8
1,2,2,102,-0.2,0.492147,0,-1.0,0.1,1.0,-0.8
1,2,2,103,1.6,0.494769,0,1.0,0.1,-1.0,-0.2
1,2,2,104,-0.2,0.569617,1,1.0,0.1,1.0,1.6
1,2,2,105,-1.6,0.512956,1,1.0,0.1,1.0,-0.2
1,2,2,106,-0.8,0.683058,0,-1.0,1.1,1.0,-1.6
1,2,2,107,-0.2,0.565804,0,-1.0,0.1,-1.0,-0.8
1,2,2,108,-0.2,0.509304,0,-1.0,0.1,-1.0,-0.2
1,2,2,109,-0.8,0.567117,1,1.0,0.1,-1.0,-0.2
1,2,2,110,1.6,0.454642,0,1.0,0.1,1.0,-0.8
1,3,2,1,0.2,0.524518,0,1.0,0.1,0.0,-100.0
1,3,2,2,0.2,0.421936,0,1.0,0.1,1.0,0.2
1,3,2,3,1.6,0.362345,0,1.0,0.1,1.0,0.2
1,3,2,4,0.8,0.554421,0,1.0,1.1,1.0,1.6
1,3,2,5,-0.8,0.490678,1,1.0,0.1,1.0,0.8
1,3,2,6,-0.8,0.525257,0,-1.0,0.1,1.0,-0.8
1,3,2,7,-0.8,0.558613,1,1.0,0.1,-1.0,-0.8
1,3,2,8,0.8,0.543269,0,1.0,0.1,1.0,-0.8
1,3,2,9,-0.8,0.4953,1,1.0,0.1,1.0,0.8
1,3,2,10,1.6,0.418093,0,1.0,0.1,1.0,-0.8
1,3,2,11,0.8,0.520607,0,1.0,1.1,1.0,1.6
1,3,2,12,-0.8,0.56898,0,-1.0,1.1,1.0,0.8
1,3,2,13,0.8,0.425257,0,1.0,0.1,-1.0,-0.8
1,3,2,14,0.8,0.421818,0,1.0,1.1,1.0,0.8
1,3,2,15,1.6,0.403181,0,1.0,0.1,1.0,0.8
1,3,2,16,0.2,0.385312,0,1.0,0.1,1.0,1.6
1,3,2,17,0.2,0.368134,0,1.0,0.1,1.0,0.2
1,3,2,18,-0.8,0.319397,0,-1.0,0.1,1.0,0.2
1,3,2,19,-0.2,0.489675,0,-1.0,0.1,-1.0,-0.8
1,3,2,20,0.2,0.515466,0,1.0,0.1,-1.0,-0.2
1,3,2,21,-1.6,0.509485,0,-1.0,0.1,1.0,0.2
1,3,2,22,-0.2,0.535507,0,-1.0,0.1,-1.0,-1.6
1,3,2,23,-0.2,0.433144,0,-1.0,0.1,-1.0,-0.2
1,3,2,24,-0.8,0.565299,1,1.0,0.1,-1.0,-0.2
1,3,2,25,0.2,0.501042,0,1.0,0.1,1.0,-0.8
1,3,2,26,-1.6,0.45511,1,1.0,0.1,1.0,0.2
1,3,2,27,-0.8,0.435837,0,-1.0,1.1,1.0,-1.6
1,3,2,28,-0.2,0.655824,0,-1.0,0.1,-1.0,-0.8
1,3,2,29,-0.2,0.492755,0,-1.0,0.1,-1.0,-0.2
1,3,2,30,0.2,0.4788,0,1.0,0.1,-1.0,-0.2
1,3,2,31,-0.2,0.386996,1,1.0,1.1,1.0,0.2
1,3,2,32,-1.6,0.432757,1,1.0,0.1,1.0,-0.2
1,3,2,33,0.8,0.462554,0,1.0,1.1,1.0,-1.6
1,3,2,34,0.2,0.521629,0,1.0,0.1,1.0,0.8
1,3,2,35,0.2,0.579204,0,1.0,1.1,1.0,0.2
1,3,2,36,0.2,0.434488,0,1.0,0.1,1.0,0.2
1,3,2,37,0.8,0.543071,0,1.0,0.1,1.0,0.2
1,3,2,38,0.8,0.448498,0,1.0,1.1,1.0,0.8
1,3,2,39,-0.2,0.501458,0,-1.0,0.1,1.0,0.8
1,3,2,40,-1.6,0.479797,1,1.0,0.1,-1.0,-0.2
1,3,2,41,-0.2,0.443162,0,-1.0,0.1,1.0,-1.6
1,3,2,42,0.8,0.439919,0,1.0,0.1,-1.0,-0.2
1,3,2,43,-0.8,0.468294,1,1.0,0.1,1.0,0.8
1,3,2,44,-0.2,0.399115,0,-1.0,0.1,1.0,-0.8
1,3,2,45,1.6,0.502215,0,1.0,0.1,-1.0,-0.2
1,3,2,46,0.8,0.711068,1,-1.0,0.1,1.0,1.6
1,3,2,47,-0.8,0.385287,0,-1.0,0.1,-1.0,0.8
1,3,2,48,1.6,0.495961,0,1.0,0.1,-1.0,-0.8
1,3,2,49,-1.6,0.506624,1,1.0,0.1,1.0,1.6
1,3,2,50,-0.2,0.460519,0,-1.0,0.1,1.0,-1.6
1,3,2,51,-0.2,0.593572,1,1.0,0.1,-1.0,-0.2
1,3,2,52,-0.2,0.608066,0,-1.0,1.1,1.0,-0.2
1,3,2,53,-1.6,0.462203,1,1.0,1.1,-1.0,-0.2
1,3,2,54,-0.2,0.561556,0,-1.0,0.1,1.0,-1.6
1,3,2,55,0.2,0.618458,1,-1.0,0.1,-1.0,-0.2
1,3,2,56,1.6,0.50307,0,1.0,0.1,-1.0,0.2
1,3,2,57,-0.8,0.51311,1,1.0,1.1,1.0,1.6
1,3,2,58,-0.2,0.540202,0,-1.0,0.1,1.0,-0.8
1,3,2,59,-0.8,0.467761,1,1.0,0.1,-1.0,-0.2
1,3,2,60,-0.8,0.623436,0,-1.0,0.1,1.0,-0.8
1,3,2,61,-0.8,0.517475,1,1.0,0.1,-1.0,-0.8
1,3,2,62,-1.6,0.614264,0,-1.0,0.1,1.0,-0.8
1,3,2,63,-0.2,0.557069,1,1.0,0.1,-1.0,-1.6
1,3,2,64,-0.8,0.76437,1,1.0,0.1,1.0,-0.2
1,3,2,65,0.8,0.709382,0,1.0,1.1,1.0,-0.8
1,3,2,66,-0.2,0.494389,0,-1.0,1.1,1.0,0.8
1,3,2,67,1.6,0.393051,0,1.0,0.1,-1.0,-0.2
1,3,2,68,1.6,0.408391,0,1.0,0.1,1.0,1.6
1,3,2,69,0.2,0.558783,0,1.0,0.1,1.0,1.6
1,3,2,70,-1.6,0.550001,1,1.0,0.1,1.0,0.2
1,3,2,71,1.6,0.462897,0,1.0,0.1,1.0,-1.6
1,3,2,72,0.2,0.546079,1,-1.0,0.1,1.0,1.6
1,3,2,73,0.8,0.451009,0,1.0,0.1,-1.0,0.2
1,3,2,74,-0.2,0.487011,1,1.0,0.1,1.0,0.8
1,3,2,75,0.2,0.322373,0,1.0,0.1,1.0,-0.2
1,3,2,76,-1.6,0.419012,1,1.0,1.1,1.0,0.2
1,3,2,77,1.6,0.352357,0,1.0,0.1,1.0,-1.6
1,3,2,78,0.2,0.440571,1,-1.0,0.1,1.0,1.6
1,3,2,79,-1.6,0.270112,0,-1.0,1.1,-1.0,0.2
1,3,2,80,0.8,0.536598,0,1.0,0.1,-1.0,-1.6
1,3,2,81,-0.2,0.658382,1,1.0,0.1,1.0,0.8
1,3,2,82,-1.6,0.597982,1,1.0,0.1,1.0,-0.2
1,3,2,83,-0.8,0.636978,0,-1.0,0.1,1.0,-1.6
1,3,2,84,-0.8,0.688876,0,-1.0,0.1,-1.0,-0.8
1,3,2,85,-0.8,0.531658,1,1.0,1.1,-1.0,-0.8
1,3,2,86,0.8,0.533214,0,1.0,0.1,1.0,-0.8
1,3,2,87,0.8,0.581842,0,1.0,0.1,1.0,0.8
1,3,2,88,-0.2,0.644547,0,-1.0,0.1,1.0,0.8
1,3,2,89,0.2,0.705256,0,1.0,1.1,-1.0,-0.2
1,3,2,90,0.2,0.587395,0,1.0,0.1,1.0,0.2
1,3,2,91,1.6,0.531068,0,1.0,0.1,1.0,0.2
1,3,2,92,0.2,0.563405,1,-1.0,0.1,1.0,1.6
1,3,2,93,0.2,0.420686,0,1.0,0.1,-1.0,0.2
1,3,2,94,0.8,0.512911,0,1.0,0.1,1.0,0.2
1,3,2,95,0.2,0.54691,0,1.0,0.1,1.0,0.8
1,3,2,96,-0.2,0.403676,0,-1.0,0.1,1.0,0.2
1,3,2,97,1.6,0.474692,0,1.0,0.1,-1.0,-0.2
1,3,2,98,-0.2,0.485172,0,-1.0,0.1,1.0,1.6
1,3,2,99,0.2,0.496688,0,1.0,0.1,-1.0,-0.2
1,3,2,100,0.8,0.466495,0,1.0,1.1,1.0,0.2
1,3,2,101,0.8,0.4621,0,1.0,1.1,1.0,0.8
1,3,2,102,-0.8,0.330043,0,-1.0,0.1,1.0,0.8
1,3,2,103,-1.6,0.668273,1,1.0,0.1,-1.0,-0.8
1,3,2,104,-0.8,0.543639,0,-1.0,1.1,1.0,-1.6
1,3,2,105,0.8,0.551545,1,-1.0,0.1,-1.0,-0.8
1,3,2,106,0.2,0.487836,0,1.0,0.1,-1.0,0.8
1,3,2,107,-0.2,0.706458,1,1.0,0.1,1.0,0.2
1,3,2,108,-0.2,0.565109,0,-1.0,1.1,1.0,-0.2
1,3,2,109,0.8,0.573597,0,1.0,0.1,-1.0,-0.2
1,3,2,110,0.2,0.443857,0,1.0,0.1,1.0,0.8
1,1,3,1,1.6,0.473628,0,1.0,0.1,0.0,-100.0
1,1,3,2,-0.8,0.38094,1,1.0,0.1,1.0,1.6
1,1,3,3,0.8,0.404489,0,1.0,0.1,1.0,-0.8
1,1,3,4,0.2,0.466426,1,-1.0,0.1,1.0,0.8
1,1,3,5,1.6,0.413891,0,1.0,0.1,-1.0,0.2
1,1,3,6,-1.6,0.475977,1,1.0,1.1,1.0,1.6
1,1,3,7,0.2,0.455162,0,1.0,0.1,1.0,-1.6
1,1,3,8,-1.6,0.443259,1,1.0,0.1,1.0,0.2
1,1,3,9,1.6,0.352046,0,1.0,1.1,1.0,-1.6
1,1,3,10,-1.6,0.456114,1,1.0,0.1,1.0,1.6
1,1,3,11,0.8,0.372244,0,1.0,0.1,1.0,-1.6
1,1,3,12,0.8,0.483632,0,1.0,0.1,1.0,0.8
1,1,3,13,0.8,0.486462,0,1.0,0.1,1.0,0.8
1,1,3,14,-1.6,0.472862,1,1.0,0.1,1.0,0.8
1,1,3,15,-0.2,0.380777,0,-1.0,0.1,1.0,-1.6
1,1,3,16,-0.2,0.603922,0,-1.0,0.1,-1.0,-0.2
1,1,3,17,0.8,0.577863,0,1.0,0.1,-1.0,-0.2
1,1,3,18,-0.2,0.561186,1,1.0,1.1,1.0,0.8
1,1,3,19,1.6,0.441324,0,1.0,0.1,1.0,-0.2
1,1,3,20,-0.8,0.437921,1,1.0,0.1,1.0,1.6
1,1,3,21,-0.2,0.498766,0,-1.0,0.1,1.0,-0.8
1,1,3,22,-0.8,0.51684,1,1.0,0.1,-1.0,-0.2
1,1,3,23,-0.8,0.574243,1,1.0,1.1,1.0,-0.8
1,1,3,24,0.8,0.493759,0,1.0,0.1,1.0,-0.8
1,1,3,25,0.2,0.520387,1,-1.0,0.1,1.0,0.8
1,1,3,26,0.2,0.369779,0,1.0,1.1,-1.0,0.2
1,1,3,27,-0.8,0.321357,0,-1.0,1.1,1.0,0.2
1,1,3,28,0.8,0.394761,0,1.0,1.1,-1.0,-0.8
1,1,3,29,0.2,0.441445,0,1.0,0.1,1.0,0.8
1,1,3,30,-0.2,0.390105,0,-1.0,0.1,1.0,0.2
1,1,3,31,0.2,0.388804,1,-1.0,1.1,-1.0,-0.2
1,1,3,32,-0.2,0.355649,0,-1.0,0.1,-1.0,0.2
1,1,3,33,-1.6,0.243605,1,1.0,0.1,-1.0,-0.2
1,1,3,34,-0.8,0.488503,0,-1.0,0.1,1.0,-1.6
1,1,3,35,-0.8,0.555082,0,-1.0,0.1,-1.0,-0.8
1,1,3,36,-0.8,0.371293,1,1.0,0.1,-1.0,-0.8
1,1,3,37,-0.8,0.458467,1,1.0,0.1,1.0,-0.8
1,1,3,38,-0.2,0.446636,1,1.0,1.1,1.0,-0.8
1,1,3,39,-1.6,0.379374,1,1.0,0.1,1.0,-0.2
1,1,3,40,1.6,0.346948,1,-1.0,0.1,1.0,-1.6
1,1,3,41,1.6,0.339453,0,1.0,0.1,-1.0,1.6
1,1,3,42,0.2,0.388117,0,1.0,0.1,1.0,1.6
1,1,3,43,0.2,0.37091,0,1.0,0.1,1.0,0.2
1,1,3,44,-0.2,0.362412,0,-1.0,0.1,1.0,0.2
1,1,3,45,1.6,0.242255,1,-1.0,1.1,-1.0,-0.2
1,1,3,47,-1.6,0.519682,1,1.0,0.1,0.0,-0.2
1,1,3,48,0.8,0.417194,0,1.0,0.1,1.0,-1.6
1,1,3,49,-0.2,0.622722,0,-1.0,0.1,1.0,0.8
1,1,3,50,-0.2,0.436208,0,-1.0,0.1,-1.0,-0.2
1,1,3,51,-0.2,0.432722,1,1.0,0.1,-1.0,-0.2
1,1,3,52,-1.6,0.477624,1,1.0,0.1,1.0,-0.2
1,1,3,53,-0.8,0.600772,1,1.0,1.1,1.0,-1.6
1,1,3,54,1.6,0.407072,0,1.0,0.1,1.0,-0.8
1,1,3,55,1.6,0.397011,0,1.0,0.1,1.0,1.6
1,1,3,56,0.2,0.435689,1,-1.0,0.1,1.0,1.6
1,1,3,57,-1.6,0.584318,0,-1.0,0.1,-1.0,0.2
1,1,3,58,-0.8,0.495327,0,-1.0,0.1,-1.0,-1.6
1,1,3,59,-0.2,0.545815,0,-1.0,0.1,-1.0,-0.8
1,1,3,60,0.8,0.45877,0,1.0,0.1,-1.0,-0.2
1,1,3,61,-1.6,0.534588,1,1.0,0.1,1.0,0.8
1,1,3,62,-1.6,0.511638,0,-1.0,0.1,1.0,-1.6
1,1,3,63,-0.8,0.465388,1,1.0,0.1,-1.0,-1.6
1,1,3,64,0.8,0.460769,0,1.0,1.1,1.0,-0.8
1,1,3,65,0.8,0.465023,0,1.0,1.1,1.0,0.8
1,1,3,66,0.2,0.356961,0,1.0,0.1,1.0,0.8
1,1,3,67,0.2,0.669002,1,-1.0,0.1,1.0,0.2
1,1,3,68,0.2,0.368405,0,1.0,1.1,-1.0,0.2
1,1,3,69,-0.2,0.511871,0,-1.0,0.1,1.0,0.2
1,1,3,70,0.8,0.257924,1,-1.0,0.1,-1.0,-0.2
1,1,3,71,-0.8,0.413915,0,-1.0,0.1,-1.0,0.8
1,1,3,72,0.8,0.507975,0,1.0,0.1,-1.0,-0.8
1,1,3,73,-0.8,0.414171,0,-1.0,0.1,1.0,0.8
1,1,3,74,-0.2,0.444326,0,-1.0,0.1,-1.0,-0.8
1,1,3,75,0.2,0.464938,0,1.0,1.1,-1.0,-0.2
1,1,3,76,0.8,0.412793,0,1.0,0.1,1.0,0.2
1,1,3,77,-1.6,0.507066,1,1.0,0.1,1.0,0.8
1,1,3,78,1.6,0.389059,0,1.0,0.1,1.0,-1.6
1,1,3,79,0.8,0.531742,1,-1.0,0.1,1.0,1.6
1,1,3,80,0.2,0.365174,0,1.0,0.1,-1.0,0.8
1,1,3,81,-0.2,0.524546,0,-1.0,0.1,1.0,0.2
1,1,3,82,0.2,0.413946,0,1.0,0.1,-1.0,-0.2
1,1,3,83,-0.2,0.548257,1,1.0,0.1,1.0,0.2
1,1,3,84,0.2,0.492807,0,1.0,0.1,1.0,-0.2
1,1,3,85,0.2,0.439439,0,1.0,0.1,1.0,0.2
1,1,3,86,0.8,0.516423,0,1.0,0.1,1.0,0.2
1,1,3,87,0.8,0.50159,0,1.0,0.1,1.0,0.8
1,1,3,88,0.2,0.383701,0,1.0,0.1,1.0,0.8
1,1,3,89,-0.2,0.438323,0,-1.0,1.1,1.0,0.2
1,1,3,90,0.8,0.371156,0,1.0,1.1,-1.0,-0.2
1,1,3,91,0.2,0.426466,0,1.0,1.1,1.0,0.8
1,1,3,92,-0.2,0.431773,0,-1.0,1.1,1.0,0.2
1,1,3,93,1.6,0.388652,0,1.0,0.1,-1.0,-0.2
1,1,3,94,0.8,0.315533,0,1.0,0.1,1.0,1.6
1,1,3,95,0.2,0.389445,0,1.0,0.1,1.0,0.8
1,1,3,96,0.2,0.40478,0,1.0,0.1,1.0,0.2
1,1,3,97,0.2,0.434416,0,1.0,0.1,1.0,0.2
1,1,3,98,-0.8,0.470864,1,1.0,1.1,1.0,0.2
1,1,3,99,-0.2,0.410515,0,-1.0,0.1,1.0,-0.8
1,1,3,100,0.2,0.36036,0,1.0,0.1,-1.0,-0.2
1,1,3,101,-0.8,0.480638,0,-1.0,1.1,1.0,0.2
1,1,3,102,0.8,0.467963,0,1.0,0.1,-1.0,-0.8
1,1,3,103,-0.8,0.511013,1,1.0,0.1,1.0,0.8
1,1,3,104,-0.8,0.42526,0,-1.0,0.1,1.0,-0.8
1,1,3,105,-0.8,0.574891,1,1.0,1.1,-1.0,-0.8
1,1,3,106,-0.8,0.462294,1,1.0,0.1,1.0,-0.8
1,1,3,107,-0.2,0.402328,0,-1.0,0.1,1.0,-0.8
1,1,3,108,-0.2,0.392135,1,1.0,0.1,-1.0,-0.2
1,1,3,109,1.6,0.439076,0,1.0,0.1,1.0,-0.2
1,1,3,110,-0.2,0.443996,1,1.0,0.1,1.0,1.6
1,2,3,1,0.8,0.491503,0,1.0,0.1,0.0,-100.0
1,2,3,2,0.2,0.446243,0,1.0,1.1,1.0,0.8
1,2,3,3,0.8,0.40308,0,1.0,0.1,1.0,0.2
1,2,3,4,-0.8,0.568945,1,1.0,1.1,1.0,0.8
1,2,3,5,-0.2,0.584486,1,1.0,0.1,1.0,-0.8
1,2,3,6,0.2,0.479572,0,1.0,0.1,1.0,-0.2
1,2,3,7,1.6,0.418717,0,1.0,0.1,1.0,0.2
1,2,3,8,0.8,0.440207,0,1.0,0.1,1.0,1.6
1,2,3,9,1.6,0.404907,0,1.0,0.1,1.0,0.8
1,2,3,10,0.2,0.402806,0,1.0,1.1,1.0,1.6
1,2,3,11,0.2,0.488741,0,1.0,0.1,1.0,0.2
1,2,3,12,0.8,0.427564,0,1.0,1.1,1.0,0.2
1,2,3,13,-1.6,0.465167,1,1.0,0.1,1.0,0.8
1,2,3,14,0.8,0.437111,0,1.0,0.1,1.0,-1.6
1,2,3,15,-0.2,0.489881,0,-1.0,0.1,1.0,0.8
1,2,3,16,-1.6,0.516676,1,1.0,0.1,-1.0,-0.2
1,2,3,17,0.2,0.389858,0,1.0,0.1,1.0,-1.6
1,2,3,18,-0.8,0.484845,1,1.0,0.1,1.0,0.2
1,2,3,19,-1.6,0.415441,0,-1.0,0.1,1.0,-0.8
1,2,3,20,0.2,0.476785,0,1.0,0.1,-1.0,-1.6
1,2,3,21,-0.8,0.576219,1,1.0,0.1,1.0,0.2
1,2,3,22,-0.2,0.423604,0,-1.0,1.1,1.0,-0.8
1,2,3,23,-0.2,0.437089,0,-1.0,0.1,-1.0,-0.2
1,2,3,24,-0.2,0.713733,1,1.0,0.1,-1.0,-0.2
1,2,3,25,-0.2,0.451871,0,-1.0,0.1,1.0,-0.2
1,2,3,26,0.2,0.511782,0,1.0,0.1,-1.0,-0.2
1,2,3,27,-0.8,0.537934,1,1.0,0.1,1.0,0.2
1,2,3,28,-0.8,0.554694,1,1.0,0.1,1.0,-0.8
1,2,3,29,-1.6,0.682578,1,1.0,0.1,1.0,-0.8
1,2,3,30,-0.2,0.429399,0,-1.0,0.1,1.0,-1.6
1,2,3,31,0.8,0.442663,0,1.0,1.1,-1.0,-0.2
1,2,3,33,0.2,0.425019,0,1.0,0.1,0.0,-0.8
1,2,3,34,0.2,0.574314,0,1.0,0.1,1.0,0.2
1,2,3,35,0.8,0.453739,0,1.0,0.1,1.0,0.2
1,2,3,36,0.8,0.385667,0,1.0,1.1,1.0,0.8
1,2,3,37,-0.8,0.528652,1,1.0,0.1,1.0,0.8
1,2,3,38,-0.8,0.481891,0,-1.0,1.1,1.0,-0.8
1,2,3,39,-0.2,0.564494,0,-1.0,0.1,-1.0,-0.8
1,2,3,40,-0.2,0.636689,0,-1.0,0.1,-1.0,-0.2
1,2,3,41,0.8,0.409629,0,1.0,0.1,-1.0,-0.2
1,2,3,42,0.8,0.4156,0,1.0,0.1,1.0,0.8
1,2,3,43,0.2,0.421668,0,1.0,0.1,1.0,0.8
1,2,3,44,-0.8,0.515116,1,1.0,0.1,1.0,0.2
1,2,3,45,0.2,0.429066,0,1.0,0.1,1.0,-0.8
1,2,3,46,-0.8,0.466282,1,1.0,1.1,1.0,0.2
1,2,3,47,-0.2,0.405975,0,-1.0,0.1,1.0,-0.8
1,2,3,48,-0.2,0.419943,0,-1.0,0.1,-1.0,-0.2
1,2,3,49,0.2,0.561152,0,1.0,0.1,-1.0,-0.2
1,2,3,50,1.6,0.44936,0,1.0,0.1,1.0,0.2
1,2,3,51,0.8,0.5254,1,-1.0,0.1,1.0,1.6
1,2,3,52,1.6,0.422747,0,1.0,0.1,-1.0,0.8
1,2,3,53,-0.8,0.47601,1,1.0,0.1,1.0,1.6
1,2,3,54,0.2,0.415571,0,1.0,0.1,1.0,-0.8
1,2,3,55,-1.6,0.468817,1,1.0,0.1,1.0,0.2
1,2,3,56,0.8,0.440452,0,1.0,0.1,1.0,-1.6
1,2,3,57,0.2,0.43731,1,-1.0,1.1,1.0,0.8
1,2,3,58,0.8,0.498065,0,1.0,1.1,-1.0,0.2
1,2,3,59,1.6,0.460479,0,1.0,0.1,1.0,0.8
1,2,3,60,1.6,0.472685,0,1.0,1.1,1.0,1.6
1,2,3,61,-0.2,0.492037,1,1.0,0.1,1.0,1.6
1,2,3,62,-1.6,0.526609,1,1.0,0.1,1.0,-0.2
1,2,3,63,0.2,0.448161,0,1.0,1.1,1.0,-1.6
1,2,3,64,-0.8,0.436993,1,1.0,0.1,1.0,0.2
1,2,3,65,-0.8,0.425697,0,-1.0,0.1,1.0,-0.8
1,2,3,66,-0.2,0.639069,1,1.0,0.1,-1.0,-0.8
1,2,3,67,-1.6,0.467928,0,-1.0,0.1,1.0,-0.2
1,2,3,68,0.8,0.551132,0,1.0,1.1,-1.0,-1.6
1,2,3,69,0.8,0.415352,0,1.0,0.1,1.0,0.8
1,2,3,70,0.2,0.484702,0,1.0,1.1,1.0,0.8
1,2,3,71,-0.2,0.495373,1,1.0,0.1,1.0,0.2
1,2,3,72,0.8,0.546222,0,1.0,0.1,1.0,-0.2
1,2,3,73,0.2,0.474689,1,-1.0,0.1,1.0,0.8
1,2,3,74,1.6,0.406412,0,1.0,1.1,-1.0,0.2
1,2,3,75,1.6,0.468265,0,1.0,0.1,1.0,1.6
1,2,3,76,-0.2,0.623747,1,1.0,0.1,1.0,1.6
1,2,3,77,0.2,0.509235,0,1.0,0.1,1.0,-0.2
1,2,3,78,-0.2,0.535025,1,1.0,0.1,1.0,0.2
1,2,3,79,0.2,0.423911,0,1.0,0.1,1.0,-0.2
1,2,3,80,0.8,0.445327,0,1.0,0.1,1.0,0.2
1,2,3,81,0.2,0.665924,1,-1.0,0.1,1.0,0.8
1,2,3,82,-1.6,0.589273,1,1.0,0.1,-1.0,0.2
1,2,3,83,0.8,0.420182,0,1.0,1.1,1.0,-1.6
1,2,3,84,-1.6,0.473714,1,1.0,0.1,1.0,0.8
1,2,3,85,-0.2,0.453077,0,-1.0,0.1,1.0,-1.6
1,2,3,86,0.2,0.449129,0,1.0,0.1,-1.0,-0.2
1,2,3,87,0.8,0.436908,0,1.0,0.1,1.0,0.2
1,2,3,88,-0.2,0.473815,0,-1.0,0.1,1.0,0.8
1,2,3,89,0.2,0.429343,0,1.0,0.1,-1.0,-0.2
1,2,3,90,1.6,0.466796,0,1.0,0.1,1.0,0.2
1,2,3,91,-0.8,0.517919,1,1.0,1.1,1.0,1.6
1,2,3,92,-1.6,0.559489,1,1.0,1.1,1.0,-0.8
1,2,3,93,-0.8,0.639391,1,1.0,1.1,1.0,-1.6
1,2,3,95,-0.8,0.589813,0,-1.0,0.1,0.0,-0.2
1,2,3,96,1.6,0.540445,0,1.0,0.1,-1.0,-0.8
1,2,3,97,-1.6,0.485205,1,1.0,0.1,1.0,1.6
1,2,3,98,0.2,0.479898,0,1.0,0.1,1.0,-1.6
1,2,3,99,-0.8,0.467126,1,1.0,0.1,1.0,0.2
1,2,3,100,0.8,0.446709,0,1.0,0.1,1.0,-0.8
1,2,3,101,-0.8,0.459208,1,1.0,0.1,1.0,0.8
1,2,3,102,-0.2,0.519386,0,-1.0,0.1,1.0,-0.8
1,2,3,103,1.6,0.416584,0,1.0,0.1,-1.0,-0.2
1,2,3,104,-0.2,0.526301,0,-1.0,0.1,1.0,1.6
1,2,3,105,-1.6,0.439458,1,1.0,0.1,-1.0,-0.2
1,2,3,106,-0.8,0.596385,1,1.0,1.1,1.0,-1.6
1,2,3,107,-0.2,0.531145,0,-1.0,0.1,1.0,-0.8
1,2,3,108,-0.2,0.532501,1,1.0,0.1,-1.0,-0.2
1,2,3,109,-0.8,0.533176,0,-1.0,0.1,1.0,-0.2
1,2,3,110,1.6,0.565972,0,1.0,0.1,-1.0,-0.8
1,3,3,1,0.2,0.502319,0,1.0,0.1,0.0,-100.0
1,3,3,2,0.2,0.53612,0,1.0,0.1,1.0,0.2
1,3,3,3,1.6,0.433045,0,1.0,0.1,1.0,0.2
1,3,3,4,0.8,0.525658,0,1.0,1.1,1.0,1.6
1,3,3,5,-0.8,0.383333,1,1.0,0.1,1.0,0.8
1,3,3,6,-0.8,0.749813,1,1.0,0.1,1.0,-0.8
1,3,3,7,-0.8,0.413859,1,1.0,0.1,1.0,-0.8
1,3,3,8,0.8,0.380109,0,1.0,0.1,1.0,-0.8
1,3,3,9,-0.8,0.475444,1,1.0,0.1,1.0,0.8
1,3,3,10,1.6,0.390608,0,1.0,0.1,1.0,-0.8
1,3,3,11,0.8,0.533357,0,1.0,1.1,1.0,1.6
1,3,3,12,-0.8,0.382115,1,1.0,1.1,1.0,0.8
1,3,3,13,0.8,0.373122,0,1.0,0.1,1.0,-0.8
1,3,3,14,0.8,0.396494,1,-1.0,1.1,1.0,0.8
1,3,3,15,1.6,0.419184,0,1.0,0.1,-1.0,0.8
1,3,3,16,0.2,0.504468,1,-1.0,0.1,1.0,1.6
1,3,3,17,0.2,0.378715,0,1.0,0.1,-1.0,0.2
1,3,3,18,-0.8,0.489817,1,1.0,0.1,1.0,0.2
1,3,3,19,-0.2,0.364682,0,-1.0,0.1,1.0,-0.8
1,3,3,20,0.2,0.764635,1,-1.0,0.1,-1.0,-0.2
1,3,3,21,-1.6,0.396868,0,-1.0,0.1,-1.0,0.2
1,3,3,22,-0.2,0.483446,0,-1.0,0.1,-1.0,-1.6
1,3,3,23,-0.2,0.470334,1,1.0,0.1,-1.0,-0.2
1,3,3,24,-0.8,0.361593,0,-1.0,0.1,1.0,-0.2
1,3,3,25,0.2,0.465872,0,1.0,0.1,-1.0,-0.8
1,3,3,26,-1.6,0.461114,1,1.0,0.1,1.0,0.2
1,3,3,27,-0.8,0.369167,0,-1.0,1.1,1.0,-1.6
1,3,3,28,-0.2,0.480437,0,-1.0,0.1,-1.0,-0.8
1,3,3,29,-0.2,0.371912,1,1.0,0.1,-1.0,-0.2
1,3,3,30,0.2,0.427596,0,1.0,0.1,1.0,-0.2
1,3,3,31,-0.2,0.416558,1,1.0,1.1,1.0,0.2
1,3,3,32,-1.6,0.454053,1,1.0,0.1,1.0,-0.2
1,3,3,33,0.8,0.418318,0,1.0,1.1,1.0,-1.6
1,3,3,34,0.2,0.599651,0,1.0,0.1,1.0,0.8
1,3,3,35,0.2,0.445757,1,-1.0,1.1,1.0,0.2
1,3,3,36,0.2,0.69844,0,1.0,0.1,-1.0,0.2
1,3,3,37,0.8,0.436464,0,1.0,0.1,1.0,0.2
1,3,3,38,0.8,0.489288,0,1.0,1.1,1.0,0.8
1,3,3,39,-0.2,0.563893,1,1.0,0.1,1.0,0.8
1,3,3,40,-1.6,0.547922,1,1.0,0.1,1.0,-0.2
1,3,3,41,-0.2,0.452944,0,-1.0,0.1,1.0,-1.6
1,3,3,42,0.8,0.49676,1,-1.0,0.1,-1.0,-0.2
1,3,3,43,-0.8,0.451527,0,-1.0,0.1,-1.0,0.8
1,3,3,45,1.6,0.442878,0,1.0,0.1,0.0,-0.2
1,3,3,46,0.8,0.639864,0,1.0,0.1,1.0,1.6
1,3,3,47,-0.8,0.484509,1,1.0,0.1,1.0,0.8
1,3,3,48,1.6,0.423066,0,1.0,0.1,1.0,-0.8
1,3,3,49,-1.6,0.428532,1,1.0,0.1,1.0,1.6
1,3,3,50,-0.2,0.433985,0,-1.0,0.1,1.0,-1.6
1,3,3,51,-0.2,0.4305,1,1.0,0.1,-1.0,-0.2
1,3,3,52,-0.2,0.500177,0,-1.0,1.1,1.0,-0.2
1,3,3,53,-1.6,0.43805,1,1.0,1.1,-1.0,-0.2
1,3,3,54,-0.2,0.434945,0,-1.0,0.1,1.0,-1.6
1,3,3,55,0.2,0.415793,1,-1.0,0.1,-1.0,-0.2
1,3,3,56,1.6,0.653131,0,1.0,0.1,-1.0,0.2
1,3,3,57,-0.8,0.433109,1,1.0,1.1,1.0,1.6
1,3,3,58,-0.2,0.413746,0,-1.0,0.1,1.0,-0.8
1,3,3,59,-0.8,0.491941,1,1.0,0.1,-1.0,-0.2
1,3,3,60,-0.8,0.462615,0,-1.0,0.1,1.0,-0.8
1,3,3,61,-0.8,0.458795,1,1.0,0.1,-1.0,-0.8
1,3,3,62,-1.6,0.486684,1,1.0,0.1,1.0,-0.8
1,3,3,63,-0.2,0.617442,0,-1.0,0.1,1.0,-1.6
1,3,3,64,-0.8,0.486856,1,1.0,0.1,-1.0,-0.2
1,3,3,65,0.8,0.577637,0,1.0,1.1,1.0,-0.8
1,3,3,66,-0.2,0.50509,1,1.0,1.1,1.0,0.8
1,3,3,67,1.6,0.427009,0,1.0,0.1,1.0,-0.2
1,3,3,68,1.6,0.520502,0,1.0,0.1,1.0,1.6
1,3,3,69,0.2,0.441925,1,-1.0,0.1,1.0,1.6
1,3,3,70,-1.6,0.51047,1,1.0,0.1,-1.0,0.2
1,3,3,71,1.6,0.4006,0,1.0,0.1,1.0,-1.6
1,3,3,72,0.2,0.430644,1,-1.0,0.1,1.0,1.6
1,3,3,73,0.8,0.372017,0,1.0,0.1,-1.0,0.2
1,3,3,74,-0.2,0.547497,1,1.0,0.1,1.0,0.8
1,3,3,75,0.2,0.676234,0,1.0,0.1,1.0,-0.2
1,3,3,76,-1.6,0.463614,1,1.0,1.1,1.0,0.2
1,3,3,77,1.6,0.443949,0,1.0,0.1,1.0,-1.6
1,3,3,78,0.2,0.448351,1,-1.0,0.1,1.0,1.6
1,3,3,79,-1.6,0.300402,0,-1.0,1.1,-1.0,0.2
1,3,3,80,0.8,0.486639,1,-1.0,0.1,-1.0,-1.6
1,3,3,81,-0.2,0.59322,1,1.0,0.1,-1.0,0.8
1,3,3,82,-1.6,0.519845,1,1.0,0.1,1.0,-0.2
1,3,3,83,-0.8,0.569303,1,1.0,0.1,1.0,-1.6
1,3,3,84,-0.8,0.448941,0,-1.0,0.1,1.0,-0.8
1,3,3,85,-0.8,0.492898,1,1.0,1.1,-1.0,-0.8
1,3,3,86,0.8,0.447789,0,1.0,0.1,1.0,-0.8
1,3,3,87,0.8,0.444397,0,1.0,0.1,1.0,0.8
1,3,3,88,-0.2,0.721093,1,1.0,0.1,1.0,0.8
1,3,3,89,0.2,0.562477,0,1.0,1.1,1.0,-0.2
1,3,3,90,0.2,0.498428,0,1.0,0.1,1.0,0.2
1,3,3,91,1.6,0.501468,0,1.0,0.1,1.0,0.2
1,3,3,92,0.2,0.559416,1,-1.0,0.1,1.0,1.6
1,3,3,93,0.2,0.551539,0,1.0,0.1,-1.0,0.2
1,3,3,94,0.8,0.439619,0,1.0,0.1,1.0,0.2
1,3,3,95,0.2,0.636042,1,-1.0,0.1,1.0,0.8
1,3,3,96,-0.2,0.456945,1,1.0,0.1,-1.0,0.2
1,3,3,97,1.6,0.500876,0,1.0,0.1,1.0,-0.2
1,3,3,98,-0.2,0.662979,1,1.0,0.1,1.0,1.6
1,3,3,99,0.2,0.450879,0,1.0,0.1,1.0,-0.2
1,3,3,100,0.8,0.503307,0,1.0,1.1,1.0,0.2
1,3,3,101,0.8,0.505346,0,1.0,1.1,1.0,0.8
1,3,3,102,-0.8,0.411227,1,1.0,0.1,1.0,0.8
1,3,3,103,-1.6,0.417327,1,1.0,0.1,1.0,-0.8
1,3,3,104,-0.8,0.430669,1,1.0,1.1,1.0,-1.6
1,3,3,105,0.8,0.452142,0,1.0,0.1,1.0,-0.8
1,3,3,106,0.2,0.488283,1,-1.0,0.1,1.0,0.8
1,3,3,107,-0.2,0.739024,1,1.0,0.1,-1.0,0.2
1,3,3,108,-0.2,0.683802,1,1.0,1.1,1.0,-0.2
1,3,3,109,0.8,0.638602,0,1.0,0.1,1.0,-0.2
1,3,3,110,0.2,0.451217,0,1.0,0.1,1.0,0.8
2,1,1,1,1.6,0.65138,0,1.0,0.1,0.0,-100.0
2,1,1,2,-0.8,0.663404,1,1.0,0.1,1.0,1.6
2,1,1,3,0.8,0.603509,0,1.0,0.1,1.0,-0.8
2,1,1,4,0.2,0.58563,1,-1.0,0.1,1.0,0.8
2,1,1,5,1.6,0.560546,0,1.0,0.1,-1.0,0.2
2,1,1,6,-1.6,0.496226,1,1.0,1.1,1.0,1.6
2,1,1,7,0.2,0.651191,0,1.0,0.1,1.0,-1.6
2,1,1,8,-1.6,0.535297,1,1.0,0.1,1.0,0.2
2,1,1,9,1.6,0.479937,0,1.0,1.1,1.0,-1.6
2,1,1,10,-1.6,0.48321,1,1.0,0.1,1.0,1.6
2,1,1,11,0.8,0.422186,0,1.0,0.1,1.0,-1.6
2,1,1,12,0.8,0.531462,0,1.0,0.1,1.0,0.8
2,1,1,13,0.8,0.413022,0,1.0,0.1,1.0,0.8
2,1,1,14,-1.6,0.587065,1,1.0,0.1,1.0,0.8
2,1,1,15,-0.2,0.521576,0,-1.0,0.1,1.0,-1.6
2,1,1,16,-0.2,0.474913,1,1.0,0.1,-1.0,-0.2
2,1,1,17,0.8,0.558468,0,1.0,0.1,1.0,-0.2
2,1,1,18,-0.2,0.518309,1,1.0,1.1,1.0,0.8
2,1,1,19,1.6,0.424134,0,1.0,0.1,1.0,-0.2
2,1,1,20,-0.8,0.54122,1,1.0,0.1,1.0,1.6
2,1,1,21,-0.2,0.446337,0,-1.0,0.1,1.0,-0.8
2,1,1,22,-0.8,0.650752,1,1.0,0.1,-1.0,-0.2
2,1,1,23,-0.8,0.57467,1,1.0,1.1,1.0,-0.8
2,1,1,24,0.8,0.518472,0,1.0,0.1,1.0,-0.8
2,1,1,25,0.2,0.455535,1,-1.0,0.1,1.0,0.8
2,1,1,26,0.2,0.483603,0,1.0,1.1,-1.0,0.2
2,1,1,27,-0.8,0.414391,1,1.0,1.1,1.0,0.2
2,1,1,28,0.8,0.420554,0,1.0,1.1,1.0,-0.8
2,1,1,29,0.2,0.554016,1,-1.0,0.1,1.0,0.8
2,1,1,30,-0.2,0.665977,0,-1.0,0.1,-1.0,0.2
2,1,1,31,0.2,0.637365,0,1.0,1.1,-1.0,-0.2
2,1,1,32,-0.2,0.610391,1,1.0,0.1,1.0,0.2
2,1,1,33,-1.6,0.656199,1,1.0,0.1,1.0,-0.2
2,1,1,34,-0.8,0.468344,1,1.0,0.1,1.0,-1.6
2,1,1,35,-0.8,0.559654,1,1.0,0.1,1.0,-0.8
2,1,1,36,-0.8,0.535819,1,1.0,0.1,1.0,-0.8
2,1,1,37,-0.8,0.472519,1,1.0,0.1,1.0,-0.8
2,1,1,38,-0.2,0.435714,1,1.0,1.1,1.0,-0.8
2,1,1,39,-1.6,0.496618,1,1.0,0.1,1.0,-0.2
2,1,1,40,1.6,0.539449,0,1.0,0.1,1.0,-1.6
2,1,1,41,1.6,0.499941,0,1.0,0.1,1.0,1.6
2,1,1,42,0.2,0.526178,0,1.0,0.1,1.0,1.6
2,1,1,43,0.2,0.423602,0,1.0,0.1,1.0,0.2
2,1,1,44,-0.2,0.38886,0,-1.0,0.1,1.0,0.2
2,1,1,45,1.6,0.507731,0,1.0,1.1,-1.0,-0.2
2,1,1,46,-0.2,0.509921,0,-1.0,0.1,1.0,1.6
2,1,1,47,-1.6,0.519872,1,1.0,0.1,-1.0,-0.2
2,1,1,48,0.8,0.609107,0,1.0,0.1,1.0,-1.6
2,1,1,49,-0.2,0.663163,1,1.0,0.1,1.0,0.8
2,1,1,50,-0.2,0.371303,1,1.0,0.1,1.0,-0.2
2,1,1,51,-0.2,0.578762,0,-1.0,0.1,1.0,-0.2
2,1,1,52,-1.6,0.618043,1,1.0,0.1,-1.0,-0.2
2,1,1,53,-0.8,0.551576,1,1.0,1.1,1.0,-1.6
2,1,1,54,1.6,0.327585,1,-1.0,0.1,1.0,-0.8
2,1,1,55,1.6,0.585046,0,1.0,0.1,-1.0,1.6
2,1,1,56,0.2,0.583589,1,-1.0,0.1,1.0,1.6
2,1,1,57,-1.6,0.534173,1,1.0,0.1,-1.0,0.2
2,1,1,58,-0.8,0.735025,0,-1.0,0.1,1.0,-1.6
2,1,1,59,-0.2,0.575812,1,1.0,0.1,-1.0,-0.8
2,1,1,60,0.8,0.551357,0,1.0,0.1,1.0,-0.2
2,1,1,61,-1.6,0.543264,1,1.0,0.1,1.0,0.8
2,1,1,62,-1.6,0.504002,1,1.0,0.1,1.0,-1.6
2,1,1,63,-0.8,0.610218,0,-1.0,0.1,1.0,-1.6
2,1,1,64,0.8,0.432307,1,-1.0,1.1,-1.0,-0.8
2,1,1,65,0.8,0.557141,1,-1.0,1.1,-1.0,0.8
2,1,1,66,0.2,0.620908,0,1.0,0.1,-1.0,0.8
2,1,1,67,0.2,0.61842,0,1.0,0.1,1.0,0.2
2,1,1,68,0.2,0.471921,0,1.0,1.1,1.0,0.2
2,1,1,69,-0.2,0.52331,0,-1.0,0.1,1.0,0.2
2,1,1,71,-0.8,0.449349,0,-1.0,0.1,0.0,0.8
2,1,1,72,0.8,0.421311,1,-1.0,0.1,-1.0,-0.8
2,1,1,73,-0.8,0.562858,0,-1.0,0.1,-1.0,0.8
2,1,1,74,-0.2,0.682924,1,1.0,0.1,-1.0,-0.8
2,1,1,75,0.2,0.581579,1,-1.0,1.1,1.0,-0.2
2,1,1,76,0.8,0.597001,0,1.0,0.1,-1.0,0.2
2,1,1,77,-1.6,0.723686,1,1.0,0.1,1.0,0.8
2,1,1,78,1.6,0.733101,1,-1.0,0.1,1.0,-1.6
2,1,1,79,0.8,0.581969,1,-1.0,0.1,-1.0,1.6
2,1,1,80,0.2,0.485273,0,1.0,0.1,-1.0,0.8
2,1,1,81,-0.2,0.80786,0,-1.0,0.1,1.0,0.2
2,1,1,82,0.2,0.550221,1,-1.0,0.1,-1.0,-0.2
2,1,1,83,-0.2,0.469774,0,-1.0,0.1,-1.0,0.2
2,1,1,84,0.2,0.313568,1,-1.0,0.1,-1.0,-0.2
2,1,1,85,0.2,0.54759,0,1.0,0.1,-1.0,0.2
2,1,1,86,0.8,0.620391,0,1.0,0.1,1.0,0.2
2,1,1,87,0.8,0.617794,0,1.0,0.1,1.0,0.8
2,1,1,88,0.2,0.526941,0,1.0,0.1,1.0,0.8
2,1,1,89,-0.2,0.448603,0,-1.0,1.1,1.0,0.2
2,1,1,90,0.8,0.525156,1,-1.0,1.1,-1.0,-0.2
2,1,1,91,0.2,0.606643,1,-1.0,1.1,-1.0,0.8
2,1,1,92,-0.2,0.452882,0,-1.0,1.1,-1.0,0.2
2,1,1,93,1.6,0.704901,0,1.0,0.1,-1.0,-0.2
2,1,1,94,0.8,0.666725,0,1.0,0.1,1.0,1.6
2,1,1,95,0.2,0.638456,0,1.0,0.1,1.0,0.8
2,1,1,96,0.2,0.451204,0,1.0,0.1,1.0,0.2
2,1,1,97,0.2,0.47134,0,1.0,0.1,1.0,0.2
2,1,1,98,-0.8,0.410466,0,-1.0,1.1,1.0,0.2
2,1,1,99,-0.2,0.584508,1,1.0,0.1,-1.0,-0.8
2,1,1,100,0.2,0.551255,1,-1.0,0.1,1.0,-0.2
2,1,1,101,-0.8,0.559469,0,-1.0,1.1,-1.0,0.2
2,1,1,102,0.8,0.3515,1,-1.0,0.1,-1.0,-0.8
2,1,1,103,-0.8,0.399693,0,-1.0,0.1,-1.0,0.8
2,1,1,104,-0.8,0.669573,0,-1.0,0.1,-1.0,-0.8
2,1,1,105,-0.8,0.728923,0,-1.0,1.1,-1.0,-0.8
2,1,1,106,-0.8,0.514592,1,1.0,0.1,-1.0,-0.8
2,1,1,107,-0.2,0.540464,1,1.0,0.1,1.0,-0.8
2,1,1,109,1.6,0.678627,0,1.0,0.1,0.0,-0.2
2,1,1,110,-0.2,0.561872,1,1.0,0.1,1.0,1.6
2,2,1,1,-0.8,0.563083,1,1.0,0.1,0.0,-100.0
2,2,1,2,-0.2,0.706257,1,1.0,1.1,1.0,-0.8
2,2,1,3,0.2,0.436687,1,-1.0,0.1,1.0,-0.2
2,2,1,4,1.6,0.553224,0,1.0,0.1,-1.0,0.2
2,2,1,5,0.8,0.601326,0,1.0,0.1,1.0,1.6
2,2,1,6,1.6,0.4713,0,1.0,0.1,1.0,0.8
2,2,1,7,0.2,0.434507,1,-1.0,0.1,1.0,1.6
2,2,1,8,0.2,0.631593,0,1.0,0.1,-1.0,0.2
2,2,1,9,0.8,0.412848,1,-1.0,1.1,1.0,0.2
2,2,1,10,-1.6,0.459057,1,1.0,0.1,-1.0,0.8
2,2,1,11,0.8,0.511067,0,1.0,1.1,1.0,-1.6
2,2,1,12,-0.2,0.561088,1,1.0,0.1,1.0,0.8
2,2,1,13,-1.6,0.481307,1,1.0,0.1,1.0,-0.2
2,2,1,14,0.8,0.604636,0,1.0,0.1,1.0,-1.6
2,2,1,15,-0.8,0.458783,1,1.0,0.1,1.0,0.8
2,2,1,16,-1.6,0.454528,1,1.0,0.1,1.0,-0.8
2,2,1,17,0.2,0.530808,0,1.0,0.1,1.0,-1.6
2,2,1,18,-0.8,0.364015,1,1.0,0.1,1.0,0.2
2,2,1,19,-0.2,0.620271,0,-1.0,0.1,1.0,-0.8
2,2,1,20,-0.2,0.385638,1,1.0,0.1,-1.0,-0.2
2,2,1,21,-0.2,0.616387,0,-1.0,1.1,1.0,-0.2
2,2,1,22,-0.2,0.46965,1,1.0,0.1,-1.0,-0.2
2,2,1,23,0.2,0.697161,0,1.0,0.1,1.0,-0.2
2,2,1,24,-0.8,0.579721,1,1.0,0.1,1.0,0.2
2,2,1,25,-0.8,0.53129,1,1.0,0.1,1.0,-0.8
2,2,1,26,-1.6,0.380458,1,1.0,0.1,1.0,-0.8
2,2,1,27,-0.2,0.40392,1,1.0,0.1,1.0,-1.6
2,2,1,28,0.8,0.40204,1,-1.0,0.1,1.0,-0.2
2,2,1,29,-0.8,0.560043,1,1.0,0.1,-1.0,0.8
2,2,1,30,0.2,0.528369,0,1.0,1.1,1.0,-0.8
2,2,1,31,0.2,0.577536,1,-1.0,0.1,1.0,0.2
2,2,1,32,0.8,0.488925,0,1.0,0.1,-1.0,0.2
2,2,1,33,0.8,0.491746,0,1.0,0.1,1.0,0.8
2,2,1,34,-0.8,0.542565,1,1.0,0.1,1.0,0.8
2,2,1,35,-0.8,0.527181,1,1.0,1.1,1.0,-0.8
2,2,1,36,0.2,0.664542,1,-1.0,0.1,1.0,-0.8
2,2,1,37,-0.2,0.852575,0,-1.0,1.1,-1.0,0.2
2,2,1,38,0.8,0.440862,1,-1.0,0.1,-1.0,-0.2
2,2,1,39,0.8,0.773329,1,-1.0,0.1,-1.0,0.8
2,2,1,40,0.2,0.572895,0,1.0,0.1,-1.0,0.8
2,2,1,41,-0.8,0.564157,1,1.0,1.1,1.0,0.2
2,2,1,42,0.2,0.564306,0,1.0,0.1,1.0,-0.8
2,2,1,43,-0.8,0.604511,1,1.0,0.1,1.0,0.2
2,2,1,44,-0.2,0.722429,1,1.0,0.1,1.0,-0.8
2,2,1,45,-0.2,0.643919,1,1.0,0.1,1.0,-0.2
2,2,1,46,0.2,0.76061,0,1.0,0.1,1.0,-0.2
2,2,1,47,1.6,0.520786,0,1.0,0.1,1.0,0.2
2,2,1,48,0.8,0.48985,0,1.0,0.1,1.0,1.6
2,2,1,49,1.6,0.420969,0,1.0,0.1,1.0,0.8
2,2,1,50,-0.8,0.490191,1,1.0,0.1,1.0,1.6
2,2,1,51,0.2,0.733049,0,1.0,0.1,1.0,-0.8
2,2,1,52,-1.6,0.413705,1,1.0,0.1,1.0,0.2
2,2,1,53,0.8,0.491717,0,1.0,0.1,1.0,-1.6
2,2,1,54,0.2,0.414532,1,-1.0,0.1,1.0,0.8
2,2,1,55,0.8,0.516679,0,1.0,0.1,-1.0,0.2
2,2,1,56,1.6,0.669841,0,1.0,1.1,1.0,0.8
2,2,1,57,1.6,0.849492,0,1.0,1.1,1.0,1.6
2,2,1,58,-0.2,0.461163,1,1.0,0.1,1.0,1.6
2,2,1,59,-1.6,0.721539,1,1.0,1.1,1.0,-0.2
2,2,1,60,0.2,0.458884,0,1.0,0.1,1.0,-1.6
2,2,1,61,-0.8,0.830812,1,1.0,0.1,1.0,0.2
2,2,1,62,-0.8,0.564511,0,-1.0,1.1,1.0,-0.8
2,2,1,63,-0.2,0.61239,0,-1.0,0.1,-1.0,-0.8
2,2,1,64,-1.6,0.450562,1,1.0,0.1,-1.0,-0.2
2,2,1,65,0.8,0.566622,0,1.0,0.1,1.0,-1.6
2,2,1,66,0.8,0.558129,0,1.0,0.1,1.0,0.8
2,2,1,67,0.2,0.557987,1,-1.0,1.1,1.0,0.8
2,2,1,68,-0.2,0.566108,1,1.0,0.1,-1.0,0.2
2,2,1,69,0.8,0.597528,0,1.0,0.1,1.0,-0.2
2,2,1,70,0.2,0.468135,1,-1.0,1.1,1.0,0.8
2,2,1,71,1.6,0.447715,0,1.0,0.1,-1.0,0.2
2,2,1,72,1.6,0.500547,0,1.0,0.1,1.0,1.6
2,2,1,73,-0.2,0.494468,1,1.0,0.1,1.0,1.6
2,2,1,74,0.2,0.673204,0,1.0,0.1,1.0,-0.2
2,2,1,75,-0.2,0.620606,1,1.0,0.1,1.0,0.2
2,2,1,76,0.2,0.873892,0,1.0,0.1,1.0,-0.2
2,2,1,77,0.8,0.597189,0,1.0,0.1,1.0,0.2
2,2,1,78,0.2,0.444146,0,1.0,0.1,1.0,0.8
2,2,1,79,-1.6,0.440781,1,1.0,0.1,1.0,0.2
2,2,1,80,0.8,0.597518,0,1.0,0.1,1.0,-1.6
2,2,1,81,-1.6,0.420145,1,1.0,0.1,1.0,0.8
2,2,1,82,-0.2,0.681771,0,-1.0,1.1,1.0,-1.6
2,2,1,83,0.2,0.805288,0,1.0,0.1,-1.0,-0.2
2,2,1,84,0.8,0.539101,1,-1.0,0.1,1.0,0.2
2,2,1,85,-0.2,0.475764,0,-1.0,0.1,-1.0,0.8
2,2,1,86,0.2,0.391099,1,-1.0,1.1,-1.0,-0.2
2,2,1,87,0.8,0.574115,0,1.0,0.1,-1.0,0.2
2,2,1,88,-0.8,0.685438,1,1.0,0.1,1.0,0.8
2,2,1,89,-1.6,0.504185,1,1.0,0.1,1.0,-0.8
2,2,1,90,-0.8,0.378144,1,1.0,1.1,1.0,-1.6
2,2,1,91,-0.2,0.497554,0,-1.0,1.1,1.0,-0.8
2,2,1,92,-0.8,0.41237,1,1.0,1.1,-1.0,-0.2
2,2,1,93,1.6,0.490442,0,1.0,1.1,1.0,-0.8
2,2,1,94,-1.6,0.453153,1,1.0,0.1,1.0,1.6
2,2,1,95,0.2,0.497413,1,-1.0,0.1,1.0,-1.6
2,2,1,96,-0.8,0.547979,0,-1.0,0.1,-1.0,0.2
2,2,1,97,0.8,0.604877,0,1.0,0.1,-1.0,-0.8
2,2,1,98,-0.8,0.530606,1,1.0,1.1,1.0,0.8
2,2,1,99,-0.2,0.59626,0,-1.0,0.1,1.0,-0.8
2,2,1,100,1.6,0.707205,0,1.0,0.1,-1.0,-0.2
2,2,1,101,-0.2,0.597004,1,1.0,0.1,1.0,1.6
2,2,1,102,-1.6,0.467869,1,1.0,0.1,1.0,-0.2
2,2,1,103,-0.8,0.35909,1,1.0,0.1,1.0,-1.6
2,2,1,104,-0.2,0.375255,1,1.0,0.1,1.0,-0.8
2,2,1,105,-0.2,0.414547,1,1.0,0.1,1.0,-0.2
2,2,1,106,-0.8,0.500444,1,1.0,1.1,1.0,-0.2
2,2,1,107,1.6,0.574648,0,1.0,0.1,1.0,-0.8
2,2,1,108,0.2,0.526068,1,-1.0,0.1,1.0,1.6
2,2,1,109,1.6,0.599603,0,1.0,0.1,-1.0,0.2
2,2,1,110,-0.2,0.461534,1,1.0,0.1,1.0,1.6
2,3,1,1,0.8,0.610848,0,1.0,0.1,0.0,-100.0
2,3,1,2,-0.8,0.608697,1,1.0,0.1,1.0,0.8
2,3,1,3,-0.8,0.542766,1,1.0,1.1,1.0,-0.8
2,3,1,4,-0.8,0.495774,1,1.0,1.1,1.0,-0.8
2,3,1,5,0.8,0.514406,0,1.0,0.1,1.0,-0.8
2,3,1,6,-0.8,0.468707,1,1.0,0.1,1.0,0.8
2,3,1,7,1.6,0.455839,0,1.0,0.1,1.0,-0.8
2,3,1,8,0.8,0.355818,1,-1.0,1.1,1.0,1.6
2,3,1,9,-0.8,0.460082,1,1.0,0.1,-1.0,0.8
2,3,1,10,0.8,0.47214,0,1.0,0.1,1.0,-0.8
2,3,1,11,0.8,0.643392,1,-1.0,0.1,1.0,0.8
2,3,1,12,1.6,0.424168,0,1.0,0.1,-1.0,0.8
2,3,1,13,0.2,0.517592,0,1.0,0.1,1.0,1.6
2,3,1,14,0.2,0.566962,1,-1.0,0.1,1.0,0.2
2,3,1,15,-0.8,0.638296,1,1.0,0.1,-1.0,0.2
2,3,1,16,-0.2,0.491245,0,-1.0,0.1,1.0,-0.8
2,3,1,17,0.2,0.453821,1,-1.0,0.1,-1.0,-0.2
2,3,1,18,-0.8,0.625768,1,1.0,1.1,-1.0,0.2
2,3,1,19,-0.2,0.655743,1,1.0,0.1,1.0,-0.8
2,3,1,20,0.2,0.627431,1,-1.0,1.1,1.0,-0.2
2,3,1,21,-0.8,0.50465,1,1.0,0.1,-1.0,0.2
2,3,1,22,0.2,0.522817,0,1.0,1.1,1.0,-0.8
2,3,1,23,-1.6,0.508275,1,1.0,1.1,1.0,0.2
2,3,1,24,-0.2,0.454316,1,1.0,0.1,1.0,-1.6
2,3,1,25,-0.2,0.554392,1,1.0,0.1,1.0,-0.2
2,3,1,26,-0.2,0.738422,1,1.0,0.1,1.0,-0.2
2,3,1,27,0.2,0.795183,1,-1.0,0.1,1.0,-0.2
2,3,1,28,-0.2,0.625795,1,1.0,0.1,-1.0,0.2
2,3,1,29,-1.6,0.69544,0,-1.0,0.1,1.0,-0.2
2,3,1,30,1.6,0.714134,0,1.0,1.1,-1.0,-1.6
2,3,1,31,0.2,0.636117,0,1.0,0.1,1.0,1.6
2,3,1,32,0.2,0.608917,0,1.0,0.1,1.0,0.2
2,3,1,33,0.8,0.606963,0,1.0,0.1,1.0,0.2
2,3,1,34,0.8,0.676975,1,-1.0,0.1,1.0,0.8
2,3,1,35,0.8,0.560638,0,1.0,0.1,-1.0,0.8
2,3,1,36,-0.2,0.44851,0,-1.0,0.1,1.0,0.8
2,3,1,37,-1.6,0.420708,1,1.0,0.1,-1.0,-0.2
2,3,1,39,0.8,0.520631,1,-1.0,0.1,0.0,-0.2
2,3,1,40,-0.8,0.546139,1,1.0,1.1,-1.0,0.8
2,3,1,41,-0.2,0.634695,1,1.0,0.1,1.0,-0.8
2,3,1,42,1.6,0.351629,1,-1.0,0.1,1.0,-0.2
2,3,1,43,0.8,0.471683,1,-1.0,0.1,-1.0,1.6
2,3,1,44,-0.8,0.474938,1,1.0,0.1,-1.0,0.8
2,3,1,45,1.6,0.470378,0,1.0,0.1,1.0,-0.8
2,3,1,46,-1.6,0.481903,1,1.0,0.1,1.0,1.6
2,3,1,47,-0.2,0.740465,1,1.0,0.1,1.0,-1.6
2,3,1,48,-0.2,0.58943,0,-1.0,0.1,1.0,-0.2
2,3,1,49,-0.2,0.443982,1,1.0,0.1,-1.0,-0.2
2,3,1,50,-1.6,0.544597,1,1.0,0.1,1.0,-0.2
2,3,1,51,-0.2,0.601537,0,-1.0,0.1,1.0,-1.6
2,3,1,52,0.2,0.39934,1,-1.0,0.1,-1.0,-0.2
2,3,1,53,1.6,0.477502,0,1.0,0.1,-1.0,0.2
2,3,1,54,-0.8,0.424905,1,1.0,0.1,1.0,1.6
2,3,1,55,-0.2,0.670124,0,-1.0,0.1,1.0,-0.8
2,3,1,56,-0.8,0.345624,1,1.0,0.1,-1.0,-0.2
2,3,1,57,-0.8,0.530656,0,-1.0,0.1,1.0,-0.8
2,3,1,58,-0.8,0.363757,1,1.0,1.1,-1.0,-0.8
2,3,1,59,-1.6,0.491905,1,1.0,0.1,1.0,-0.8
2,3,1,60,-0.2,0.494821,0,-1.0,0.1,1.0,-1.6
2,3,1,61,-0.8,0.361325,1,1.0,0.1,-1.0,-0.2
2,3,1,62,0.8,0.449464,0,1.0,0.1,1.0,-0.8
2,3,1,63,-0.2,0.525336,1,1.0,1.1,1.0,0.8
2,3,1,64,1.6,0.398897,0,1.0,0.1,1.0,-0.2
2,3,1,65,1.6,0.72491,0,1.0,1.1,1.0,1.6
2,3,1,66,0.2,0.574343,1,-1.0,0.1,1.0,1.6
2,3,1,67,-1.6,0.621856,1,1.0,0.1,-1.0,0.2
2,3,1,68,1.6,0.491282,0,1.0,0.1,1.0,-1.6
2,3,1,69,0.2,0.533846,1,-1.0,0.1,1.0,1.6
2,3,1,70,0.8,0.502627,0,1.0,0.1,-1.0,0.2
2,3,1,71,-0.2,0.776732,0,-1.0,1.1,1.0,0.8
2,3,1,72,0.2,0.440104,1,-1.0,0.1,-1.0,-0.2
2,3,1,73,-1.6,0.556834,1,1.0,0.1,-1.0,0.2
2,3,1,74,1.6,0.556923,0,1.0,0.1,1.0,-1.6
2,3,1,75,0.2,0.636948,1,-1.0,0.1,1.0,1.6
2,3,1,76,-1.6,0.609564,1,1.0,0.1,-1.0,0.2
2,3,1,77,0.8,0.535828,0,1.0,0.1,1.0,-1.6
2,3,1,78,-0.2,0.448393,1,1.0,0.1,1.0,0.8
2,3,1,79,-1.6,0.413249,1,1.0,0.1,1.0,-0.2
2,3,1,80,-0.8,0.387298,1,1.0,1.1,1.0,-1.6
2,3,1,81,-0.8,0.433939,1,1.0,0.1,1.0,-0.8
2,3,1,82,-0.8,0.798848,0,-1.0,1.1,1.0,-0.8
2,3,1,83,0.8,0.50906,0,1.0,1.1,-1.0,-0.8
2,3,1,84,0.8,0.478858,0,1.0,0.1,1.0,0.8
2,3,1,85,0.2,0.602534,0,1.0,1.1,1.0,0.8
2,3,1,86,0.2,0.632534,0,1.0,0.1,1.0,0.2
2,3,1,87,0.2,0.549191,0,1.0,0.1,1.0,0.2
2,3,1,88,1.6,0.47733,0,1.0,0.1,1.0,0.2
2,3,1,89,0.2,0.432724,0,1.0,0.1,1.0,1.6
2,3,1,90,0.2,0.413361,0,1.0,0.1,1.0,0.2
2,3,1,91,0.8,0.435418,0,1.0,0.1,1.0,0.2
2,3,1,92,0.2,0.351885,0,1.0,0.1,1.0,0.8
2,3,1,93,-0.2,0.368152,0,-1.0,0.1,1.0,0.2
2,3,1,94,1.6,0.719551,0,1.0,1.1,-1.0,-0.2
2,3,1,95,-0.2,0.35295,0,-1.0,1.1,1.0,1.6
2,3,1,96,0.2,0.633289,0,1.0,0.1,-1.0,-0.2
2,3,1,97,0.8,0.493942,0,1.0,0.1,1.0,0.2
2,3,1,98,0.8,0.456614,0,1.0,1.1,1.0,0.8
2,3,1,99,-0.8,0.268577,0,-1.0,0.1,1.0,0.8
2,3,1,100,-1.6,0.67979,1,1.0,0.1,-1.0,-0.8
2,3,1,101,-0.8,0.483283,1,1.0,0.1,1.0,-1.6
2,3,1,102,0.8,0.382084,1,-1.0,1.1,1.0,-0.8
2,3,1,103,0.2,0.732804,0,1.0,0.1,-1.0,0.8
2,3,1,104,-0.2,0.493742,0,-1.0,0.1,1.0,0.2
2,3,1,105,-0.2,0.40846,1,1.0,0.1,-1.0,-0.2
2,3,1,106,0.8,0.390223,1,-1.0,0.1,1.0,-0.2
2,3,1,107,0.2,0.509182,1,-1.0,0.1,-1.0,0.8
2,3,1,108,0.2,0.335307,0,1.0,0.1,-1.0,0.2
2,3,1,109,-1.6,0.423976,0,-1.0,0.1,1.0,0.2
2,3,1,110,-0.2,0.51725,1,1.0,0.1,-1.0,-1.6
2,1,2,1,0.2,0.792362,1,-1.0,0.1,0.0,-100.0
2,1,2,2,0.2,0.76637,0,1.0,0.1,-1.0,0.2
2,1,2,3,1.6,0.645554,0,1.0,0.1,1.0,0.2
2,1,2,4,0.8,0.570308,0,1.0,1.1,1.0,1.6
2,1,2,5,-0.8,0.54563,1,1.0,0.1,1.0,0.8
2,1,2,6,-0.8,0.514517,1,1.0,0.1,1.0,-0.8
2,1,2,7,-0.8,0.476233,1,1.0,0.1,1.0,-0.8
2,1,2,8,0.8,0.407806,1,-1.0,0.1,1.0,-0.8
2,1,2,9,-0.8,0.486217,1,1.0,0.1,-1.0,0.8
2,1,2,10,1.6,0.528547,0,1.0,0.1,1.0,-0.8
2,1,2,11,0.8,0.602142,1,-1.0,1.1,1.0,1.6
2,1,2,12,-0.8,0.616163,0,-1.0,1.1,-1.0,0.8
2,1,2,13,0.8,0.693627,0,1.0,0.1,-1.0,-0.8
2,1,2,14,0.8,0.61635,0,1.0,1.1,1.0,0.8
2,1,2,15,1.6,0.533784,0,1.0,0.1,1.0,0.8
2,1,2,16,0.2,0.358522,0,1.0,0.1,1.0,1.6
2,1,2,17,0.2,0.382602,0,1.0,0.1,1.0,0.2
2,1,2,18,-0.8,0.429303,0,-1.0,0.1,1.0,0.2
2,1,2,19,-0.2,0.442686,1,1.0,0.1,-1.0,-0.8
2,1,2,20,0.2,0.495605,0,1.0,0.1,1.0,-0.2
2,1,2,21,-1.6,0.562104,1,1.0,0.1,1.0,0.2
2,1,2,22,-0.2,0.386326,1,1.0,0.1,1.0,-1.6
2,1,2,23,-0.2,0.400916,1,1.0,0.1,1.0,-0.2
2,1,2,24,-0.8,0.646843,1,1.0,0.1,1.0,-0.2
2,1,2,25,0.2,0.595801,0,1.0,0.1,1.0,-0.8
2,1,2,26,-1.6,0.514467,1,1.0,0.1,1.0,0.2
2,1,2,27,-0.8,0.556688,1,1.0,1.1,1.0,-1.6
2,1,2,28,-0.2,0.49252,0,-1.0,0.1,1.0,-0.8
2,1,2,29,-0.2,0.367254,1,1.0,0.1,-1.0,-0.2
2,1,2,30,0.2,0.358721,1,-1.0,0.1,1.0,-0.2
2,1,2,31,-0.2,0.478686,1,1.0,1.1,-1.0,0.2
2,1,2,32,-1.6,0.482126,1,1.0,0.1,1.0,-0.2
2,1,2,33,0.8,0.540918,0,1.0,1.1,1.0,-1.6
2,1,2,34,0.2,0.429723,1,-1.0,0.1,1.0,0.8
2,1,2,35,0.2,0.571056,1,-1.0,1.1,-1.0,0.2
2,1,2,36,0.2,0.426553,0,1.0,0.1,-1.0,0.2
2,1,2,37,0.8,0.575937,0,1.0,0.1,1.0,0.2
2,1,2,38,0.8,0.415145,0,1.0,1.1,1.0,0.8
2,1,2,39,-0.2,0.389462,0,-1.0,0.1,1.0,0.8
2,1,2,40,-1.6,0.531984,1,1.0,0.1,-1.0,-0.2
2,1,2,41,-0.2,0.420937,1,1.0,0.1,1.0,-1.6
2,1,2,42,0.8,0.498487,0,1.0,0.1,1.0,-0.2
2,1,2,43,-0.8,0.725007,1,1.0,0.1,1.0,0.8
2,1,2,44,-0.2,0.710344,0,-1.0,0.1,1.0,-0.8
2,1,2,45,1.6,0.600211,0,1.0,0.1,-1.0,-0.2
2,1,2,46,0.8,0.646414,0,1.0,0.1,1.0,1.6
2,1,2,47,-0.8,0.699289,1,1.0,0.1,1.0,0.8
2,1,2,48,1.6,0.621117,0,1.0,0.1,1.0,-0.8
2,1,2,49,-1.6,0.810603,1,1.0,0.1,1.0,1.6
2,1,2,50,-0.2,0.45666,0,-1.0,0.1,1.0,-1.6
2,1,2,51,-0.2,0.58873,0,-1.0,0.1,-1.0,-0.2
2,1,2,52,-0.2,0.683555,0,-1.0,1.1,-1.0,-0.2
2,1,2,53,-1.6,0.518142,1,1.0,1.1,-1.0,-0.2
2,1,2,54,-0.2,0.583799,0,-1.0,0.1,1.0,-1.6
2,1,2,55,0.2,0.70261,0,1.0,0.1,-1.0,-0.2
2,1,2,56,1.6,0.76829,0,1.0,0.1,1.0,0.2
2,1,2,57,-0.8,0.583858,1,1.0,1.1,1.0,1.6
2,1,2,58,-0.2,0.606534,0,-1.0,0.1,1.0,-0.8
2,1,2,59,-0.8,0.556653,0,-1.0,0.1,-1.0,-0.2
2,1,2,60,-0.8,0.436827,1,1.0,0.1,-1.0,-0.8
2,1,2,61,-0.8,0.609525,0,-1.0,0.1,1.0,-0.8
2,1,2,62,-1.6,0.415807,1,1.0,0.1,-1.0,-0.8
2,1,2,63,-0.2,0.644887,0,-1.0,0.1,1.0,-1.6
2,1,2,64,-0.8,0.377479,1,1.0,0.1,-1.0,-0.2
2,1,2,65,0.8,0.46506,0,1.0,1.1,1.0,-0.8
2,1,2,66,-0.2,0.437053,1,1.0,1.1,1.0,0.8
2,1,2,67,1.6,0.497675,0,1.0,0.1,1.0,-0.2
2,1,2,68,1.6,0.564467,0,1.0,0.1,1.0,1.6
2,1,2,69,0.2,0.460773,0,1.0,0.1,1.0,1.6
2,1,2,70,-1.6,0.496667,1,1.0,0.1,1.0,0.2
2,1,2,71,1.6,0.515543,0,1.0,0.1,1.0,-1.6
2,1,2,72,0.2,0.524655,1,-1.0,0.1,1.0,1.6
2,1,2,73,0.8,0.438318,0,1.0,0.1,-1.0,0.2
2,1,2,74,-0.2,0.730975,1,1.0,0.1,1.0,0.8
2,1,2,75,0.2,0.516209,0,1.0,0.1,1.0,-0.2
2,1,2,76,-1.6,0.429609,1,1.0,1.1,1.0,0.2
2,1,2,77,1.6,0.51512,0,1.0,0.1,1.0,-1.6
2,1,2,78,0.2,0.637103,1,-1.0,0.1,1.0,1.6
2,1,2,79,-1.6,0.457745,1,1.0,1.1,-1.0,0.2
2,1,2,80,0.8,0.606272,0,1.0,0.1,1.0,-1.6
2,1,2,81,-0.2,0.556051,1,1.0,0.1,1.0,0.8
2,1,2,82,-1.6,0.524125,1,1.0,0.1,1.0,-0.2
2,1,2,83,-0.8,0.629483,1,1.0,0.1,1.0,-1.6
2,1,2,84,-0.8,0.394945,1,1.0,0.1,1.0,-0.8
2,1,2,85,-0.8,0.369659,1,1.0,1.1,1.0,-0.8
2,1,2,86,0.8,0.521187,0,1.0,0.1,1.0,-0.8
2,1,2,87,0.8,0.714359,0,1.0,0.1,1.0,0.8
2,1,2,88,-0.2,0.56443,1,1.0,0.1,1.0,0.8
2,1,2,89,0.2,0.564499,0,1.0,1.1,1.0,-0.2
2,1,2,90,0.2,0.628663,0,1.0,0.1,1.0,0.2
2,1,2,91,1.6,0.394145,0,1.0,0.1,1.0,0.2
2,1,2,92,0.2,0.416858,0,1.0,0.1,1.0,1.6
2,1,2,93,0.2,0.358155,0,1.0,0.1,1.0,0.2
2,1,2,94,0.8,0.462097,0,1.0,0.1,1.0,0.2
2,1,2,95,0.2,0.410229,0,1.0,0.1,1.0,0.8
2,1,2,96,-0.2,0.528324,0,-1.0,0.1,1.0,0.2
2,1,2,97,1.6,0.593741,0,1.0,0.1,-1.0,-0.2
2,1,2,98,-0.2,0.480444,1,1.0,0.1,1.0,1.6
2,1,2,99,0.2,0.499734,0,1.0,0.1,1.0,-0.2
2,1,2,100,0.8,0.621902,1,-1.0,1.1,1.0,0.2
2,1,2,101,0.8,0.539255,1,-1.0,1.1,-1.0,0.8
2,1,2,102,-0.8,0.483947,0,-1.0,0.1,-1.0,0.8
2,1,2,103,-1.6,0.486716,1,1.0,0.1,-1.0,-0.8
2,1,2,104,-0.8,0.809603,0,-1.0,1.1,1.0,-1.6
2,1,2,105,0.8,0.607838,0,1.0,0.1,-1.0,-0.8
2,1,2,106,0.2,0.43758,1,-1.0,0.1,1.0,0.8
2,1,2,107,-0.2,0.426497,0,-1.0,0.1,-1.0,0.2
2,1,2,108,-0.2,0.295861,1,1.0,1.1,-1.0,-0.2
2,1,2,109,0.8,0.338501,1,-1.0,0.1,1.0,-0.2
2,1,2,110,0.2,0.627342,1,-1.0,0.1,-1.0,0.8
2,2,2,1,-0.2,0.489396,1,1.0,0.1,0.0,-100.0
2,2,2,2,0.8,0.571956,0,1.0,1.1,1.0,-0.2
2,2,2,3,-0.2,0.611168,0,-1.0,0.1,1.0,0.8
2,2,2,4,-1.6,0.52913,1,1.0,0.1,-1.0,-0.2
2,2,2,5,-0.2,0.506864,0,-1.0,1.1,1.0,-1.6
2,2,2,6,0.2,0.580807,1,-1.0,0.1,-1.0,-0.2
2,2,2,7,0.8,0.428359,0,1.0,0.1,-1.0,0.2
2,2,2,8,-0.2,0.449678,0,-1.0,0.1,1.0,0.8
2,2,2,9,0.8,0.421489,1,-1.0,0.1,-1.0,-0.2
2,2,2,10,0.2,0.610907,1,-1.0,0.1,-1.0,0.8
2,2,2,11,-1.6,0.513261,1,1.0,0.1,-1.0,0.2
2,2,2,12,-0.8,0.563079,0,-1.0,0.1,1.0,-1.6
2,2,2,13,0.2,0.49932,0,1.0,0.1,-1.0,-0.8
2,2,2,14,0.2,0.533379,0,1.0,0.1,1.0,0.2
2,2,2,15,-0.8,0.430169,0,-1.0,0.1,1.0,0.2
2,2,2,16,-0.8,0.435398,0,-1.0,0.1,-1.0,-0.8
2,2,2,17,0.8,0.568134,0,1.0,0.1,-1.0,-0.8
2,2,2,18,0.2,0.471455,1,-1.0,0.1,1.0,0.8
2,2,2,19,-0.8,0.539049,1,1.0,1.1,-1.0,0.2
2,2,2,20,0.8,0.475628,0,1.0,0.1,1.0,-0.8
2,2,2,21,-0.2,0.51106,1,1.0,0.1,1.0,0.8
2,2,2,22,-0.2,0.489111,1,1.0,1.1,1.0,-0.2
2,2,2,23,0.8,0.491956,0,1.0,0.1,1.0,-0.2
2,2,2,24,-0.2,0.494626,1,1.0,1.1,1.0,0.8
2,2,2,25,-1.6,0.457446,0,-1.0,0.1,1.0,-0.2
2,2,2,26,-1.6,0.509227,1,1.0,1.1,-1.0,-1.6
2,2,2,27,0.2,0.559617,0,1.0,0.1,1.0,-1.6
2,2,2,28,-0.2,0.639457,1,1.0,1.1,1.0,0.2
2,2,2,29,1.6,0.460295,0,1.0,0.1,1.0,-0.2
2,2,2,30,-0.8,0.64032,1,1.0,0.1,1.0,1.6
2,2,2,31,-0.2,0.741273,0,-1.0,0.1,1.0,-0.8
2,2,2,32,0.2,0.550143,0,1.0,0.1,-1.0,-0.2
2,2,2,33,-0.8,0.549983,1,1.0,0.1,1.0,0.2
2,2,2,34,1.6,0.437958,0,1.0,0.1,1.0,-0.8
2,2,2,35,0.2,0.458682,0,1.0,0.1,1.0,1.6
2,2,2,36,1.6,0.382696,0,1.0,1.1,1.0,0.2
2,2,2,37,0.2,0.365454,1,-1.0,1.1,1.0,1.6
2,2,2,38,-1.6,0.420949,1,1.0,1.1,-1.0,0.2
2,2,2,39,-0.2,0.642374,0,-1.0,0.1,1.0,-1.6
2,2,2,40,-0.8,0.375124,1,1.0,0.1,-1.0,-0.2
2,2,2,41,0.2,0.470539,0,1.0,0.1,1.0,-0.8
2,2,2,42,-1.6,0.561867,1,1.0,0.1,1.0,0.2
2,2,2,43,0.8,0.457838,0,1.0,0.1,1.0,-1.6
2,2,2,44,0.2,0.502334,0,1.0,0.1,1.0,0.8
2,2,2,45,-0.2,0.463969,1,1.0,0.1,1.0,0.2
2,2,2,46,0.2,0.700082,1,-1.0,0.1,1.0,-0.2
2,2,2,47,0.8,0.430161,0,1.0,0.1,-1.0,0.2
2,2,2,48,0.8,0.427534,0,1.0,0.1,1.0,0.8
2,2,2,49,-0.2,0.384825,1,1.0,0.1,1.0,0.8
2,2,2,50,-0.2,0.535835,0,-1.0,0.1,1.0,-0.2
2,2,2,51,-0.2,0.368464,1,1.0,0.1,-1.0,-0.2
2,2,2,52,0.8,0.631827,0,1.0,0.1,1.0,-0.2
2,2,2,54,0.8,0.471898,0,1.0,0.1,0.0,1.6
2,2,2,55,1.6,0.435194,0,1.0,0.1,1.0,0.8
2,2,2,56,1.6,0.552171,0,1.0,0.1,1.0,1.6
2,2,2,57,-0.8,0.576042,1,1.0,0.1,1.0,1.6
2,2,2,58,0.8,0.503441,0,1.0,0.1,1.0,-0.8
2,2,2,59,1.6,0.505755,0,1.0,0.1,1.0,0.8
2,2,2,60,0.8,0.55564,0,1.0,0.1,1.0,1.6
2,2,2,61,1.6,0.363658,0,1.0,0.1,1.0,0.8
2,2,2,62,-1.6,0.579767,1,1.0,0.1,1.0,1.6
2,2,2,63,0.2,0.395445,0,1.0,1.1,1.0,-1.6
2,2,2,64,-0.2,0.425915,0,-1.0,1.1,1.0,0.2
2,2,2,65,0.2,0.367482,0,1.0,0.1,-1.0,-0.2
2,2,2,66,1.6,0.462722,0,1.0,0.1,1.0,0.2
2,2,2,67,-0.2,0.514676,0,-1.0,0.1,1.0,1.6
2,2,2,68,0.8,0.428713,0,1.0,0.1,-1.0,-0.2
2,2,2,69,-0.8,0.425928,1,1.0,1.1,1.0,0.8
2,2,2,70,0.2,0.599563,1,-1.0,0.1,1.0,-0.8
2,2,2,71,0.2,0.381691,0,1.0,1.1,-1.0,0.2
2,2,2,72,0.8,0.413143,0,1.0,0.1,1.0,0.2
2,2,2,73,-0.2,0.507029,1,1.0,0.1,1.0,0.8
2,2,2,74,-0.8,0.517068,1,1.0,1.1,1.0,-0.2
2,2,2,75,1.6,0.486792,0,1.0,0.1,1.0,-0.8
2,2,2,76,0.2,0.465396,1,-1.0,0.1,1.0,1.6
2,2,2,77,-0.8,0.413517,0,-1.0,0.1,-1.0,0.2
2,2,2,78,0.2,0.539472,0,1.0,0.1,-1.0,-0.8
2,2,2,79,-0.8,0.524229,1,1.0,0.1,1.0,0.2
2,2,2,80,0.8,0.597466,0,1.0,1.1,1.0,-0.8
2,2,2,81,1.6,0.524698,0,1.0,0.1,1.0,0.8
2,2,2,82,-0.2,0.653792,1,1.0,0.1,1.0,1.6
2,2,2,83,-0.8,0.530031,1,1.0,0.1,1.0,-0.2
2,2,2,84,0.8,0.55535,0,1.0,0.1,1.0,-0.8
2,2,2,85,-0.2,0.499097,1,1.0,0.1,1.0,0.8
2,2,2,86,-0.8,0.613336,1,1.0,1.1,1.0,-0.2
2,2,2,87,-0.8,0.595292,1,1.0,0.1,1.0,-0.8
2,2,2,88,-1.6,0.530083,1,1.0,1.1,1.0,-0.8
2,2,2,89,0.2,0.627332,0,1.0,0.1,1.0,-1.6
2,2,2,90,-0.2,0.408782,1,1.0,0.1,1.0,0.2
2,2,2,91,0.8,0.447278,0,1.0,0.1,1.0,-0.2
2,2,2,92,0.2,0.779787,0,1.0,0.1,1.0,0.8
2,2,2,93,-0.2,0.555229,1,1.0,0.1,1.0,0.2
2,2,2,94,-1.6,0.539029,1,1.0,0.1,1.0,-0.2
2,2,2,95,-0.8,0.563776,1,1.0,0.1,1.0,-1.6
2,2,2,96,0.2,0.596033,1,-1.0,1.1,1.0,-0.8
2,2,2,97,-0.2,0.378753,1,1.0,1.1,-1.0,0.2
2,2,2,98,1.6,0.434166,0,1.0,0.1,1.0,-0.2
2,2,2,99,-1.6,0.486852,1,1.0,0.1,1.0,1.6
2,2,2,100,-0.2,0.529901,0,-1.0,0.1,1.0,-1.6
2,2,2,101,0.2,0.538879,1,-1.0,0.1,-1.0,-0.2
2,2,2,102,-0.8,0.491677,1,1.0,0.1,-1.0,0.2
2,2,2,103,0.2,0.54245,1,-1.0,0.1,1.0,-0.8
2,2,2,104,0.8,0.407424,0,1.0,0.1,-1.0,0.2
2,2,2,105,-0.8,0.517136,1,1.0,0.1,1.0,0.8
2,2,2,106,-0.8,0.550592,1,1.0,0.1,1.0,-0.8
2,2,2,107,-1.6,0.430573,1,1.0,1.1,1.0,-0.8
2,2,2,108,0.8,0.420267,0,1.0,0.1,1.0,-1.6
2,2,2,109,-1.6,0.393398,1,1.0,1.1,1.0,0.8
2,2,2,110,-0.8,0.448254,0,-1.0,0.1,1.0,-1.6
2,3,2,1,-1.6,0.522442,1,1.0,1.1,0.0,-100.0
2,3,2,2,-0.8,0.475845,1,1.0,0.1,1.0,-1.6
2,3,2,3,0.2,0.471182,1,-1.0,0.1,1.0,-0.8
2,3,2,4,0.8,1.002669,0,1.0,0.1,-1.0,0.2
2,3,2,5,1.6,0.528911,0,1.0,1.1,1.0,0.8
2,3,2,6,-1.6,1.042313,1,1.0,0.1,1.0,1.6
2,3,2,7,-0.8,0.775022,1,1.0,0.1,1.0,-1.6
2,3,2,8,-0.2,0.774338,0,-1.0,0.1,1.0,-0.8
2,3,2,9,-0.2,0.453713,1,1.0,0.1,-1.0,-0.2
2,3,2,10,-1.6,0.361712,1,1.0,0.1,1.0,-0.2
2,3,2,11,0.8,0.505811,0,1.0,0.1,1.0,-1.6
2,3,2,12,-0.2,0.46784,1,1.0,1.1,1.0,0.8
2,3,2,13,0.2,0.831314,0,1.0,0.1,1.0,-0.2
2,3,2,15,-1.6,1.137695,1,1.0,0.1,0.0,0.2
2,3,2,16,0.2,0.514253,1,-1.0,1.1,1.0,-1.6
2,3,2,17,-0.2,0.40443,1,1.0,0.1,-1.0,0.2
2,3,2,18,-0.8,0.466444,1,1.0,0.1,1.0,-0.2
2,3,2,19,0.2,0.445824,1,-1.0,0.1,1.0,-0.8
2,3,2,20,0.2,0.554635,1,-1.0,0.1,-1.0,0.2
2,3,2,21,0.8,0.498763,1,-1.0,0.1,-1.0,0.2
2,3,2,22,0.2,0.485015,1,-1.0,0.1,-1.0,0.8
2,3,2,23,-1.6,0.759344,1,1.0,1.1,-1.0,0.2
2,3,2,24,0.8,0.503587,1,-1.0,0.1,1.0,-1.6
2,3,2,25,-0.2,0.945868,1,1.0,0.1,-1.0,0.8
2,3,2,26,0.8,0.522274,0,1.0,0.1,1.0,-0.2
2,3,2,27,0.8,0.531647,0,1.0,0.1,1.0,0.8
2,3,2,28,0.2,0.525167,0,1.0,0.1,1.0,0.8
2,3,2,29,-0.2,0.526558,0,-1.0,0.1,1.0,0.2
2,3,2,30,-1.6,0.335892,1,1.0,0.1,-1.0,-0.2
2,3,2,31,1.6,0.560478,1,-1.0,1.1,1.0,-1.6
2,3,2,32,0.8,0.56071,1,-1.0,0.1,-1.0,1.6
2,3,2,33,-0.8,0.544708,1,1.0,0.1,-1.0,0.8
2,3,2,34,-1.6,0.537536,1,1.0,0.1,1.0,-0.8
2,3,2,35,-0.8,0.866363,1,1.0,0.1,1.0,-1.6
2,3,2,36,1.6,0.461581,0,1.0,1.1,1.0,-0.8
2,3,2,37,-0.8,0.473592,1,1.0,0.1,1.0,1.6
2,3,2,38,0.2,0.781235,0,1.0,0.1,1.0,-0.8
2,3,2,39,1.6,0.508671,0,1.0,0.1,1.0,0.2
2,3,2,40,-0.8,0.390534,0,-1.0,0.1,1.0,1.6
2,3,2,41,-0.2,0.653185,1,1.0,0.1,-1.0,-0.8
2,3,2,42,0.2,0.673559,0,1.0,0.1,1.0,-0.2
2,3,2,43,0.2,1.068829,0,1.0,0.1,1.0,0.2
2,3,2,44,0.8,0.472196,0,1.0,0.1,1.0,0.2
2,3,2,45,-0.8,0.715595,1,1.0,1.1,1.0,0.8
2,3,2,46,-0.2,0.469165,0,-1.0,0.1,1.0,-0.8
2,3,2,47,0.8,0.696372,0,1.0,0.1,-1.0,-0.2
2,3,2,48,1.6,0.467343,0,1.0,0.1,1.0,0.8
2,3,2,49,0.2,0.518445,1,-1.0,0.1,1.0,1.6
2,3,2,50,-0.2,0.487902,0,-1.0,0.1,-1.0,0.2
2,3,2,51,-0.2,0.570691,1,1.0,1.1,-1.0,-0.2
2,3,2,52,-0.2,0.482212,0,-1.0,0.1,1.0,-0.2
2,3,2,53,-0.2,0.428731,1,1.0,0.1,-1.0,-0.2
2,3,2,54,-0.8,0.442179,1,1.0,0.1,1.0,-0.2
2,3,2,55,-0.8,0.462957,1,1.0,0.1,1.0,-0.8
2,3,2,56,0.2,0.594868,0,1.0,0.1,1.0,-0.8
2,3,2,57,-1.6,0.417718,1,1.0,0.1,1.0,0.2
2,3,2,58,1.6,0.543069,0,1.0,0.1,1.0,-1.6
2,3,2,59,-0.8,0.447503,1,1.0,0.1,1.0,1.6
2,3,2,60,-0.8,0.492428,0,-1.0,1.1,1.0,-0.8
2,3,2,61,0.8,0.455227,0,1.0,0.1,-1.0,-0.8
2,3,2,62,0.8,0.771532,0,1.0,1.1,1.0,0.8
2,3,2,63,-0.2,0.570814,0,-1.0,1.1,1.0,0.8
2,3,2,64,-1.6,0.578029,1,1.0,0.1,-1.0,-0.2
2,3,2,65,-1.6,0.601615,1,1.0,0.1,1.0,-1.6
2,3,2,66,-0.2,0.551598,0,-1.0,0.1,1.0,-1.6
2,3,2,67,0.8,0.535825,0,1.0,0.1,-1.0,-0.2
2,3,2,68,-0.2,0.616554,1,1.0,1.1,1.0,0.8
2,3,2,69,-1.6,0.437819,1,1.0,1.1,1.0,-0.2
2,3,2,70,0.8,0.442468,0,1.0,0.1,1.0,-1.6
2,3,2,71,0.2,0.567436,1,-1.0,0.1,1.0,0.8
2,3,2,72,-0.2,0.574956,0,-1.0,0.1,-1.0,0.2
2,3,2,73,0.2,0.494316,0,1.0,1.1,-1.0,-0.2
2,3,2,74,0.2,0.464824,0,1.0,0.1,1.0,0.2
2,3,2,75,0.2,0.588973,1,-1.0,0.1,1.0,0.2
2,3,2,76,0.2,0.427813,0,1.0,1.1,-1.0,0.2
2,3,2,77,-0.8,0.480995,0,-1.0,0.1,1.0,0.2
2,3,2,78,0.8,0.596407,0,1.0,0.1,-1.0,-0.8
2,3,2,79,-0.8,0.547338,1,1.0,0.1,1.0,0.8
2,3,2,80,-0.2,0.675767,1,1.0,0.1,1.0,-0.8
2,3,2,81,-0.8,0.399605,1,1.0,0.1,1.0,-0.2
2,3,2,82,-0.8,0.429569,1,1.0,0.1,1.0,-0.8
2,3,2,83,-1.6,0.402816,1,1.0,1.1,1.0,-0.8
2,3,2,84,1.6,0.400961,0,1.0,0.1,1.0,-1.6
2,3,2,85,0.2,0.614951,1,-1.0,0.1,1.0,1.6
2,3,2,86,0.2,0.548387,0,1.0,0.1,-1.0,0.2
2,3,2,87,0.2,0.589012,1,-1.0,1.1,1.0,0.2
2,3,2,88,-0.2,0.403802,1,1.0,0.1,-1.0,0.2
2,3,2,89,-0.2,0.425922,1,1.0,0.1,1.0,-0.2
2,3,2,90,1.6,0.455709,0,1.0,0.1,1.0,-0.2
2,3,2,91,0.2,0.403409,0,1.0,0.1,1.0,1.6
2,3,2,92,0.8,0.457351,0,1.0,0.1,1.0,0.2
2,3,2,93,0.8,0.461491,0,1.0,1.1,1.0,0.8
2,3,2,94,0.8,0.457551,0,1.0,1.1,1.0,0.8
2,3,2,95,-0.2,0.525529,1,1.0,1.1,1.0,0.8
2,3,2,96,-0.2,0.278903,1,1.0,0.1,1.0,-0.2
2,3,2,97,0.8,0.634226,0,1.0,0.1,1.0,-0.2
2,3,2,98,-0.8,0.439159,1,1.0,0.1,1.0,0.8
2,3,2,99,1.6,0.443918,0,1.0,0.1,1.0,-0.8
2,3,2,100,-0.8,0.456566,1,1.0,0.1,1.0,1.6
2,3,2,101,1.6,0.381227,0,1.0,0.1,1.0,-0.8
2,3,2,102,0.8,0.540119,0,1.0,1.1,1.0,1.6
2,3,2,103,-0.8,0.308746,1,1.0,0.1,1.0,0.8
2,3,2,104,1.6,0.398979,0,1.0,0.1,1.0,-0.8
2,3,2,105,1.6,0.493019,0,1.0,0.1,1.0,1.6
2,3,2,106,0.2,0.527623,1,-1.0,0.1,1.0,1.6
2,3,2,107,-0.2,0.43295,0,-1.0,0.1,-1.0,0.2
2,3,2,108,-0.2,0.629608,1,1.0,0.1,-1.0,-0.2
2,3,2,109,0.8,0.443142,0,1.0,0.1,1.0,-0.2
2,3,2,110,-0.8,0.551866,1,1.0,0.1,1.0,0.8
2,1,3,1,-0.2,0.746416,1,1.0,0.1,0.0,-100.0
2,1,3,2,0.8,0.594884,0,1.0,1.1,1.0,-0.2
2,1,3,3,-0.2,0.521109,0,-1.0,0.1,1.0,0.8
2,1,3,4,-1.6,0.554445,1,1.0,0.1,-1.0,-0.2
2,1,3,5,-0.2,0.530538,1,1.0,1.1,1.0,-1.6
2,1,3,6,0.2,0.548017,1,-1.0,0.1,1.0,-0.2
2,1,3,7,0.8,0.524148,0,1.0,0.1,-1.0,0.2
2,1,3,8,-0.2,0.57425,0,-1.0,0.1,1.0,0.8
2,1,3,9,0.8,0.717309,0,1.0,0.1,-1.0,-0.2
2,1,3,10,0.2,0.574283,1,-1.0,0.1,1.0,0.8
2,1,3,11,-1.6,0.525751,1,1.0,0.1,-1.0,0.2
2,1,3,12,-0.8,0.502913,1,1.0,0.1,1.0,-1.6
2,1,3,13,0.2,0.577227,0,1.0,0.1,1.0,-0.8
2,1,3,14,0.2,0.464526,1,-1.0,0.1,1.0,0.2
2,1,3,15,-0.8,0.485552,0,-1.0,0.1,-1.0,0.2
2,1,3,16,-0.8,0.519332,1,1.0,0.1,-1.0,-0.8
2,1,3,17,0.8,0.5293,1,-1.0,0.1,1.0,-0.8
2,1,3,18,0.2,0.450156,0,1.0,0.1,-1.0,0.8
2,1,3,19,-0.8,0.366764,1,1.0,1.1,1.0,0.2
2,1,3,20,0.8,0.50231,0,1.0,0.1,1.0,-0.8
2,1,3,21,-0.2,0.447655,0,-1.0,0.1,1.0,0.8
2,1,3,22,-0.2,0.380327,1,1.0,1.1,-1.0,-0.2
2,1,3,23,0.8,0.475777,0,1.0,0.1,1.0,-0.2
2,1,3,24,-0.2,0.407957,0,-1.0,1.1,1.0,0.8
2,1,3,25,-1.6,0.405471,1,1.0,0.1,-1.0,-0.2
2,1,3,26,-1.6,0.451343,1,1.0,1.1,1.0,-1.6
2,1,3,27,0.2,0.487348,0,1.0,0.1,1.0,-1.6
2,1,3,28,-0.2,0.402259,0,-1.0,1.1,1.0,0.2
2,1,3,29,1.6,0.536201,1,-1.0,0.1,-1.0,-0.2
2,1,3,30,-0.8,0.352958,1,1.0,0.1,-1.0,1.6
2,1,3,31,-0.2,0.592967,0,-1.0,0.1,1.0,-0.8
2,1,3,32,0.2,0.352408,1,-1.0,0.1,-1.0,-0.2
2,1,3,33,-0.8,0.487705,0,-1.0,0.1,-1.0,0.2
2,1,3,34,1.6,0.474368,0,1.0,0.1,-1.0,-0.8
2,1,3,35,0.2,0.654063,1,-1.0,0.1,1.0,1.6
2,1,3,36,1.6,0.377892,0,1.0,1.1,-1.0,0.2
2,1,3,37,0.2,0.401356,0,1.0,1.1,1.0,1.6
2,1,3,38,-1.6,0.439433,1,1.0,1.1,1.0,0.2
2,1,3,39,-0.2,0.5001,1,1.0,0.1,1.0,-1.6
2,1,3,40,-0.8,0.558446,1,1.0,0.1,1.0,-0.2
2,1,3,41,0.2,0.630375,0,1.0,0.1,1.0,-0.8
2,1,3,42,-1.6,0.507603,1,1.0,0.1,1.0,0.2
2,1,3,43,0.8,0.342025,1,-1.0,0.1,1.0,-1.6
2,1,3,44,0.2,0.414633,0,1.0,0.1,-1.0,0.8
2,1,3,45,-0.2,0.396549,0,-1.0,0.1,1.0,0.2
2,1,3,46,0.2,0.45972,0,1.0,0.1,-1.0,-0.2
2,1,3,47,0.8,0.415309,0,1.0,0.1,1.0,0.2
2,1,3,48,0.8,0.324712,0,1.0,0.1,1.0,0.8
2,1,3,49,-0.2,0.374483,0,-1.0,0.1,1.0,0.8
2,1,3,50,-0.2,0.405381,0,-1.0,0.1,-1.0,-0.2
2,1,3,51,-0.2,0.355508,1,1.0,0.1,-1.0,-0.2
2,1,3,52,0.8,0.715659,0,1.0,0.1,1.0,-0.2
2,1,3,53,1.6,0.461035,0,1.0,0.1,1.0,0.8
2,1,3,54,0.8,0.401155,0,1.0,0.1,1.0,1.6
2,1,3,55,1.6,0.391195,0,1.0,0.1,1.0,0.8
2,1,3,56,1.6,0.373796,0,1.0,0.1,1.0,1.6
2,1,3,57,-0.8,0.429178,0,-1.0,0.1,1.0,1.6
2,1,3,58,0.8,0.602541,0,1.0,0.1,-1.0,-0.8
2,1,3,59,1.6,0.369358,0,1.0,0.1,1.0,0.8
2,1,3,60,0.8,0.392123,0,1.0,0.1,1.0,1.6
2,1,3,61,1.6,0.430805,0,1.0,0.1,1.0,0.8
2,1,3,62,-1.6,0.452246,1,1.0,0.1,1.0,1.6
2,1,3,63,0.2,0.616259,0,1.0,1.1,1.0,-1.6
2,1,3,64,-0.2,0.41357,0,-1.0,1.1,1.0,0.2
2,1,3,65,0.2,0.563687,0,1.0,0.1,-1.0,-0.2
2,1,3,66,1.6,0.451732,0,1.0,0.1,1.0,0.2
2,1,3,67,-0.2,0.367915,0,-1.0,0.1,1.0,1.6
2,1,3,68,0.8,0.519145,0,1.0,0.1,-1.0,-0.2
2,1,3,69,-0.8,0.456626,1,1.0,1.1,1.0,0.8
2,1,3,70,0.2,0.484609,1,-1.0,0.1,1.0,-0.8
2,1,3,71,0.2,0.416075,0,1.0,1.1,-1.0,0.2
2,1,3,72,0.8,0.453833,0,1.0,0.1,1.0,0.2
2,1,3,73,-0.2,0.672803,1,1.0,0.1,1.0,0.8
2,1,3,74,-0.8,0.468353,1,1.0,1.1,1.0,-0.2
2,1,3,75,1.6,0.527846,0,1.0,0.1,1.0,-0.8
2,1,3,76,0.2,0.745105,1,-1.0,0.1,1.0,1.6
2,1,3,77,-0.8,0.449908,0,-1.0,0.1,-1.0,0.2
2,1,3,78,0.2,0.638766,0,1.0,0.1,-1.0,-0.8
2,1,3,79,-0.8,0.474671,1,1.0,0.1,1.0,0.2
2,1,3,80,0.8,0.55008,0,1.0,1.1,1.0,-0.8
2,1,3,81,1.6,0.446882,0,1.0,0.1,1.0,0.8
2,1,3,82,-0.2,0.554768,1,1.0,0.1,1.0,1.6
2,1,3,83,-0.8,0.442757,1,1.0,0.1,1.0,-0.2
2,1,3,84,0.8,0.527514,1,-1.0,0.1,1.0,-0.8
2,1,3,85,-0.2,0.417088,0,-1.0,0.1,-1.0,0.8
2,1,3,86,-0.8,0.470378,0,-1.0,1.1,-1.0,-0.2
2,1,3,87,-0.8,0.505851,0,-1.0,0.1,-1.0,-0.8
2,1,3,88,-1.6,0.507905,1,1.0,1.1,-1.0,-0.8
2,1,3,89,0.2,0.46223,0,1.0,0.1,1.0,-1.6
2,1,3,90,-0.2,0.42617,0,-1.0,0.1,1.0,0.2
2,1,3,91,0.8,0.663316,0,1.0,0.1,-1.0,-0.2
2,1,3,92,0.2,0.651595,1,-1.0,0.1,1.0,0.8
2,1,3,93,-0.2,0.439452,0,-1.0,0.1,-1.0,0.2
2,1,3,94,-1.6,0.476314,1,1.0,0.1,-1.0,-0.2
2,1,3,95,-0.8,0.479993,1,1.0,0.1,1.0,-1.6
2,1,3,96,0.2,0.715736,0,1.0,1.1,1.0,-0.8
2,1,3,97,-0.2,0.533296,1,1.0,1.1,1.0,0.2
2,1,3,98,1.6,0.269916,1,-1.0,0.1,1.0,-0.2
2,1,3,99,-1.6,0.44119,1,1.0,0.1,-1.0,1.6
2,1,3,100,-0.2,0.374104,0,-1.0,0.1,1.0,-1.6
2,1,3,101,0.2,0.477425,0,1.0,0.1,-1.0,-0.2
2,1,3,102,-0.8,0.624766,0,-1.0,0.1,1.0,0.2
2,1,3,103,0.2,0.494258,0,1.0,0.1,-1.0,-0.8
2,1,3,104,0.8,0.544927,0,1.0,0.1,1.0,0.2
2,1,3,105,-0.8,0.457552,1,1.0,0.1,1.0,0.8
2,1,3,106,-0.8,0.534793,0,-1.0,0.1,1.0,-0.8
2,1,3,107,-1.6,0.662355,1,1.0,1.1,-1.0,-0.8
2,1,3,108,0.8,0.442453,0,1.0,0.1,1.0,-1.6
2,1,3,109,-1.6,0.38326,1,1.0,1.1,1.0,0.8
2,1,3,110,-0.8,0.518541,0,-1.0,0.1,1.0,-1.6
2,2,3,1,-1.6,0.471552,1,1.0,0.1,0.0,-100.0
2,2,3,2,-0.8,0.627218,1,1.0,0.1,1.0,-1.6
2,2,3,3,0.2,0.432268,1,-1.0,0.1,1.0,-0.8
2,2,3,4,0.8,0.677019,0,1.0,0.1,-1.0,0.2
2,2,3,5,1.6,0.44051,0,1.0,0.1,1.0,0.8
2,2,3,6,-1.6,0.421397,1,1.0,0.1,1.0,1.6
2,2,3,7,-0.8,0.322701,1,1.0,1.1,1.0,-1.6
2,2,3,8,-0.2,0.428107,1,1.0,0.1,1.0,-0.8
2,2,3,9,-0.2,0.54545,0,-1.0,0.1,1.0,-0.2
2,2,3,10,-1.6,0.298308,1,1.0,0.1,-1.0,-0.2
2,2,3,11,0.8,0.300786,1,-1.0,0.1,1.0,-1.6
2,2,3,12,-0.2,0.382903,1,1.0,0.1,-1.0,0.8
2,2,3,13,0.2,0.44593,0,1.0,0.1,1.0,-0.2
2,2,3,14,0.2,0.538313,0,1.0,0.1,1.0,0.2
2,2,3,15,-1.6,0.467042,1,1.0,0.1,1.0,0.2
2,2,3,16,0.2,0.44648,0,1.0,0.1,1.0,-1.6
2,2,3,17,-0.2,0.499304,0,-1.0,0.1,1.0,0.2
2,2,3,18,-0.8,0.333381,1,1.0,0.1,-1.0,-0.2
2,2,3,19,0.2,0.389988,0,1.0,0.1,1.0,-0.8
2,2,3,20,0.2,0.508699,1,-1.0,0.1,1.0,0.2
2,2,3,21,0.8,0.33492,0,1.0,0.1,-1.0,0.2
2,2,3,22,0.2,0.551712,0,1.0,0.1,1.0,0.8
2,2,3,23,-1.6,0.463555,1,1.0,1.1,1.0,0.2
2,2,3,24,0.8,0.387472,0,1.0,1.1,1.0,-1.6
2,2,3,25,-0.2,0.442379,1,1.0,0.1,1.0,0.8
2,2,3,26,0.8,0.431111,0,1.0,1.1,1.0,-0.2
2,2,3,27,0.8,0.508547,0,1.0,0.1,1.0,0.8
2,2,3,28,0.2,0.58242,1,-1.0,1.1,1.0,0.8
2,2,3,29,-0.2,0.477351,1,1.0,1.1,-1.0,0.2
2,2,3,30,-1.6,0.432985,0,-1.0,0.1,1.0,-0.2
2,2,3,31,1.6,0.405697,0,1.0,0.1,-1.0,-1.6
2,2,3,32,0.8,0.483503,1,-1.0,0.1,1.0,1.6
2,2,3,33,-0.8,0.446316,0,-1.0,0.1,-1.0,0.8
2,2,3,34,-1.6,0.474891,1,1.0,0.1,-1.0,-0.8
2,2,3,35,-0.8,0.742451,1,1.0,1.1,1.0,-1.6
2,2,3,36,1.6,0.415354,0,1.0,0.1,1.0,-0.8
2,2,3,37,-0.8,0.412653,1,1.0,1.1,1.0,1.6
2,2,3,38,0.2,0.474746,0,1.0,0.1,1.0,-0.8
2,2,3,39,1.6,0.478058,0,1.0,0.1,1.0,0.2
2,2,3,40,-0.8,0.473421,1,1.0,0.1,1.0,1.6
2,2,3,41,-0.2,0.429071,0,-1.0,0.1,1.0,-0.8
2,2,3,42,0.2,0.346414,1,-1.0,1.1,-1.0,-0.2
2,2,3,43,0.2,0.650975,1,-1.0,0.1,-1.0,0.2
2,2,3,44,0.8,0.511063,0,1.0,0.1,-1.0,0.2
2,2,3,45,-0.8,0.537161,1,1.0,1.1,1.0,0.8
2,2,3,46,-0.2,0.521928,0,-1.0,0.1,1.0,-0.8
2,2,3,47,0.8,0.467245,0,1.0,0.1,-1.0,-0.2
2,2,3,48,1.6,0.438647,0,1.0,0.1,1.0,0.8
2,2,3,49,0.2,0.55538,0,1.0,0.1,1.0,1.6
2,2,3,50,-0.2,0.38762,0,-1.0,0.1,1.0,0.2
2,2,3,51,-0.2,0.514186,1,1.0,1.1,-1.0,-0.2
2,2,3,52,-0.2,0.500463,0,-1.0,0.1,1.0,-0.2
2,2,3,53,-0.2,0.43025,1,1.0,0.1,-1.0,-0.2
2,2,3,54,-0.8,0.51563,1,1.0,0.1,1.0,-0.2
2,2,3,55,-0.8,0.485087,1,1.0,0.1,1.0,-0.8
2,2,3,56,0.2,0.551857,0,1.0,0.1,1.0,-0.8
2,2,3,57,-1.6,0.463883,1,1.0,0.1,1.0,0.2
2,2,3,58,1.6,0.420137,0,1.0,0.1,1.0,-1.6
2,2,3,59,-0.8,0.401333,1,1.0,1.1,1.0,1.6
2,2,3,60,-0.8,0.487673,0,-1.0,0.1,1.0,-0.8
2,2,3,61,0.8,0.498257,0,1.0,0.1,-1.0,-0.8
2,2,3,62,0.8,0.493065,0,1.0,0.1,1.0,0.8
2,2,3,63,-0.2,0.623538,0,-1.0,0.1,1.0,0.8
2,2,3,64,-1.6,0.540971,1,1.0,1.1,-1.0,-0.2
2,2,3,65,-1.6,0.453804,1,1.0,1.1,1.0,-1.6
2,2,3,66,-0.2,0.481796,0,-1.0,1.1,1.0,-1.6
2,2,3,67,0.8,0.484672,0,1.0,0.1,-1.0,-0.2
2,2,3,68,-0.2,0.559235,1,1.0,0.1,1.0,0.8
2,2,3,69,-1.6,0.527506,1,1.0,0.1,1.0,-0.2
2,2,3,70,0.8,0.568976,0,1.0,0.1,1.0,-1.6
2,2,3,71,0.2,0.46424,1,-1.0,0.1,1.0,0.8
2,2,3,72,-0.2,0.444262,0,-1.0,1.1,-1.0,0.2
2,2,3,73,0.2,0.560949,1,-1.0,0.1,-1.0,-0.2
2,2,3,74,0.2,0.505023,1,-1.0,0.1,-1.0,0.2
2,2,3,75,0.2,0.499279,0,1.0,1.1,-1.0,0.2
2,2,3,76,0.2,0.429139,1,-1.0,0.1,1.0,0.2
2,2,3,77,-0.8,0.498614,0,-1.0,0.1,-1.0,0.2
2,2,3,78,0.8,0.588717,1,-1.0,1.1,-1.0,-0.8
2,2,3,79,-0.8,0.467565,1,1.0,1.1,-1.0,0.8
2,2,3,80,-0.2,0.526874,0,-1.0,0.1,1.0,-0.8
2,2,3,82,-0.8,0.495131,1,1.0,0.1,0.0,-0.8
2,2,3,83,-1.6,0.553626,1,1.0,0.1,1.0,-0.8
2,2,3,84,1.6,0.569893,0,1.0,0.1,1.0,-1.6
2,2,3,85,0.2,0.633115,1,-1.0,0.1,1.0,1.6
2,2,3,86,0.2,0.526066,0,1.0,0.1,-1.0,0.2
2,2,3,87,0.2,0.407276,1,-1.0,0.1,1.0,0.2
2,2,3,88,-0.2,0.453432,0,-1.0,0.1,-1.0,0.2
2,2,3,89,-0.2,0.473384,1,1.0,0.1,-1.0,-0.2
2,2,3,90,1.6,0.460686,0,1.0,0.1,1.0,-0.2
2,2,3,91,0.2,0.520846,1,-1.0,1.1,1.0,1.6
2,2,3,92,0.8,0.474327,0,1.0,0.1,-1.0,0.2
2,2,3,93,0.8,0.653485,1,-1.0,0.1,1.0,0.8
2,2,3,94,0.8,0.473587,0,1.0,0.1,-1.0,0.8
2,2,3,95,-0.2,0.533036,1,1.0,0.1,1.0,0.8
2,2,3,96,-0.2,0.709926,0,-1.0,0.1,1.0,-0.2
2,2,3,97,0.8,0.560088,0,1.0,0.1,-1.0,-0.2
2,2,3,98,-0.8,0.431875,1,1.0,0.1,1.0,0.8
2,2,3,99,1.6,0.5574,0,1.0,1.1,1.0,-0.8
2,2,3,100,-0.8,0.501487,1,1.0,1.1,1.0,1.6
2,2,3,101,1.6,0.407537,0,1.0,0.1,1.0,-0.8
2,2,3,102,0.8,0.573553,0,1.0,0.1,1.0,1.6
2,2,3,103,-0.8,0.484883,1,1.0,0.1,1.0,0.8
2,2,3,104,1.6,0.399835,0,1.0,0.1,1.0,-0.8
2,2,3,105,1.6,0.629703,1,-1.0,0.1,1.0,1.6
2,2,3,106,0.2,0.54734,1,-1.0,0.1,-1.0,1.6
2,2,3,107,-0.2,0.41193,0,-1.0,0.1,-1.0,0.2
2,2,3,108,-0.2,0.53792,1,1.0,0.1,-1.0,-0.2
2,2,3,109,0.8,0.466648,0,1.0,0.1,1.0,-0.2
2,2,3,110,-0.8,0.414113,1,1.0,0.1,1.0,0.8
2,3,3,1,-0.2,0.504669,1,1.0,1.1,0.0,-100.0
2,3,3,2,-0.2,0.610742,1,1.0,1.1,1.0,-0.2
2,3,3,3,1.6,0.753135,0,1.0,0.1,1.0,-0.2
2,3,3,4,0.8,0.560836,0,1.0,1.1,1.0,1.6
2,3,3,5,0.8,0.401017,0,1.0,0.1,1.0,0.8
2,3,3,6,-1.6,0.510976,1,1.0,0.1,1.0,0.8
2,3,3,8,-0.2,0.351875,1,1.0,1.1,0.0,-0.2
2,3,3,9,-0.2,0.583858,1,1.0,0.1,1.0,-0.2
2,3,3,10,1.6,0.542598,0,1.0,0.1,1.0,-0.2
2,3,3,11,-0.8,0.415315,0,-1.0,0.1,1.0,1.6
2,3,3,12,-0.8,0.532553,1,1.0,1.1,-1.0,-0.8
2,3,3,13,0.8,0.461545,0,1.0,0.1,1.0,-0.8
2,3,3,14,-1.6,0.401681,1,1.0,1.1,1.0,0.8
2,3,3,15,1.6,0.471735,0,1.0,0.1,1.0,-1.6
2,3,3,16,0.8,0.306902,1,-1.0,0.1,1.0,1.6
2,3,3,17,1.6,0.412978,1,-1.0,0.1,-1.0,0.8
2,3,3,18,0.8,0.5152,0,1.0,0.1,-1.0,1.6
2,3,3,19,0.2,0.517081,1,-1.0,0.1,1.0,0.8
2,3,3,20,1.6,0.334688,0,1.0,1.1,-1.0,0.2
2,3,3,21,0.2,0.504113,1,-1.0,0.1,1.0,1.6
2,3,3,22,-0.2,0.394203,0,-1.0,1.1,-1.0,0.2
2,3,3,23,-0.8,0.376092,1,1.0,0.1,-1.0,-0.2
2,3,3,24,-0.8,0.391699,1,1.0,0.1,1.0,-0.8
2,3,3,25,-0.2,0.326274,1,1.0,0.1,1.0,-0.8
2,3,3,26,0.8,0.495745,0,1.0,0.1,1.0,-0.2
2,3,3,27,1.6,0.626368,0,1.0,0.1,1.0,0.8
2,3,3,28,-0.2,0.519638,1,1.0,1.1,1.0,1.6
2,3,3,29,-0.8,0.417239,1,1.0,0.1,1.0,-0.2
2,3,3,30,-0.2,0.454476,1,1.0,0.1,1.0,-0.8
2,3,3,31,-1.6,0.394559,1,1.0,1.1,1.0,-0.2
2,3,3,32,0.2,0.393396,1,-1.0,0.1,1.0,-1.6
2,3,3,33,-0.2,0.448871,1,1.0,0.1,-1.0,0.2
2,3,3,34,0.8,0.340122,1,-1.0,0.1,1.0,-0.2
2,3,3,35,-0.2,0.380942,1,1.0,0.1,-1.0,0.8
2,3,3,36,1.6,0.588209,1,-1.0,0.1,1.0,-0.2
2,3,3,37,-0.8,0.571154,1,1.0,0.1,-1.0,1.6
2,3,3,38,0.8,0.434324,1,-1.0,0.1,1.0,-0.8
2,3,3,39,0.8,0.695157,0,1.0,0.1,-1.0,0.8
2,3,3,40,-0.2,0.569916,1,1.0,1.1,1.0,0.8
2,3,3,41,0.2,0.481231,1,-1.0,0.1,1.0,-0.2
2,3,3,42,-1.6,0.45259,1,1.0,0.1,-1.0,0.2
2,3,3,43,-0.8,0.456746,1,1.0,0.1,1.0,-1.6
2,3,3,44,0.2,0.428724,1,-1.0,0.1,1.0,-0.8
2,3,3,45,0.2,0.410093,1,-1.0,0.1,-1.0,0.2
2,3,3,46,1.6,0.456179,0,1.0,0.1,-1.0,0.2
2,3,3,47,0.2,0.676197,1,-1.0,0.1,1.0,1.6
2,3,3,48,-0.2,0.359597,1,1.0,0.1,-1.0,0.2
2,3,3,49,0.2,0.519584,1,-1.0,0.1,1.0,-0.2
2,3,3,50,-1.6,0.561174,1,1.0,1.1,-1.0,0.2
2,3,3,51,-1.6,0.361201,1,1.0,0.1,1.0,-1.6
2,3,3,52,0.8,0.609433,0,1.0,0.1,1.0,-1.6
2,3,3,53,-0.8,0.535351,1,1.0,0.1,1.0,0.8
2,3,3,54,-1.6,0.368055,1,1.0,0.1,1.0,-0.8
2,3,3,55,1.6,0.503456,0,1.0,0.1,1.0,-1.6
2,3,3,56,-1.6,0.385524,1,1.0,0.1,1.0,1.6
2,3,3,57,-1.6,0.504242,1,1.0,0.1,1.0,-1.6
2,3,3,58,0.2,0.458168,0,1.0,0.1,1.0,-1.6
2,3,3,59,-0.2,0.462686,0,-1.0,0.1,1.0,0.2
2,3,3,60,-1.6,0.394382,1,1.0,0.1,-1.0,-0.2
2,3,3,61,-1.6,0.441212,1,1.0,0.1,1.0,-1.6
2,3,3,62,-0.8,0.46202,0,-1.0,1.1,1.0,-1.6
2,3,3,63,-0.8,0.289917,1,1.0,0.1,-1.0,-0.8
2,3,3,64,0.2,0.389526,1,-1.0,0.1,1.0,-0.8
2,3,3,65,-0.2,0.523422,0,-1.0,0.1,-1.0,0.2
2,3,3,66,-0.8,0.365545,1,1.0,0.1,-1.0,-0.2
2,3,3,67,-0.2,0.540403,0,-1.0,0.1,1.0,-0.8
2,3,3,68,1.6,0.292744,1,-1.0,0.1,-1.0,-0.2
2,3,3,69,0.2,0.431635,1,-1.0,0.1,-1.0,1.6
2,3,3,70,0.8,0.477702,0,1.0,0.1,-1.0,0.2
2,3,3,71,1.6,0.632266,0,1.0,0.1,1.0,0.8
2,3,3,72,0.2,0.485174,1,-1.0,0.1,1.0,1.6
2,3,3,73,-0.2,0.327736,1,1.0,0.1,-1.0,0.2
2,3,3,74,0.2,0.441734,1,-1.0,1.1,1.0,-0.2
2,3,3,75,0.2,0.581971,0,1.0,0.1,-1.0,0.2
2,3,3,76,0.8,0.452672,0,1.0,0.1,1.0,0.2
2,3,3,77,0.2,0.472805,1,-1.0,0.1,1.0,0.8
2,3,3,78,0.8,0.444544,0,1.0,0.1,-1.0,0.2
2,3,3,79,-0.2,0.728841,1,1.0,0.1,1.0,0.8
2,3,3,80,0.2,0.610307,1,-1.0,0.1,1.0,-0.2
2,3,3,81,-0.8,0.448178,1,1.0,0.1,-1.0,0.2
2,3,3,82,0.8,0.50115,0,1.0,1.1,1.0,-0.8
2,3,3,83,-0.8,0.439996,1,1.0,0.1,1.0,0.8
2,3,3,84,-0.2,0.564739,0,-1.0,0.1,1.0,-0.8
2,3,3,85,-0.8,0.323994,1,1.0,0.1,-1.0,-0.2
2,3,3,86,1.6,0.461243,0,1.0,0.1,1.0,-0.8
2,3,3,87,-0.8,0.409211,1,1.0,1.1,1.0,1.6
2,3,3,88,-0.8,0.42354,1,1.0,0.1,1.0,-0.8
2,3,3,89,0.8,0.645448,1,-1.0,0.1,1.0,-0.8
2,3,3,90,-0.8,0.377554,1,1.0,0.1,-1.0,0.8
2,3,3,91,-0.8,0.440998,0,-1.0,0.1,1.0,-0.8
2,3,3,92,0.2,0.390229,1,-1.0,0.1,-1.0,-0.8
2,3,3,93,0.8,0.652616,0,1.0,0.1,-1.0,0.2
2,3,3,94,0.8,0.576373,0,1.0,0.1,1.0,0.8
2,3,3,95,0.2,0.519828,0,1.0,0.1,1.0,0.8
2,3,3,96,0.8,0.369102,0,1.0,0.1,1.0,0.2
2,3,3,97,0.2,0.457508,0,1.0,1.1,1.0,0.8
2,3,3,98,0.8,0.40484,0,1.0,0.1,1.0,0.2
2,3,3,99,0.2,0.458905,0,1.0,0.1,1.0,0.8
2,3,3,100,-1.6,0.606809,1,1.0,0.1,1.0,0.2
2,3,3,101,-0.8,0.548931,1,1.0,1.1,1.0,-1.6
2,3,3,102,-0.2,0.541592,1,1.0,1.1,1.0,-0.8
2,3,3,103,0.2,0.446352,0,1.0,1.1,1.0,-0.2
2,3,3,104,-0.2,0.563059,1,1.0,0.1,1.0,0.2
2,3,3,105,0.2,0.5791,1,-1.0,0.1,1.0,-0.2
2,3,3,106,0.2,0.466418,1,-1.0,0.1,-1.0,0.2
2,3,3,107,0.8,0.33401,0,1.0,0.1,-1.0,0.2
2,3,3,108,-0.8,0.470832,0,-1.0,0.1,1.0,0.8
2,3,3,109,-0.2,0.530088,0,-1.0,1.1,-1.0,-0.8
2,3,3,110,-0.2,0.531581,0,-1.0,1.1,-1.0,-0.2
3,1,1,1,0.8,0.424208,0,1.0,0.1,0.0,-100.0
3,1,1,2,1.6,0.389431,0,1.0,0.1,1.0,0.8
3,1,1,3,1.6,0.380241,0,1.0,0.1,1.0,1.6
3,1,1,4,-0.8,0.467655,1,1.0,0.1,1.0,1.6
3,1,1,5,-0.8,0.407036,1,1.0,1.1,1.0,-0.8
3,1,1,6,1.6,0.381025,0,1.0,1.1,1.0,-0.8
3,1,1,7,0.2,0.412313,1,-1.0,0.1,1.0,1.6
3,1,1,8,-1.6,0.434511,1,1.0,1.1,-1.0,0.2
3,1,1,9,0.2,0.599156,1,-1.0,0.1,1.0,-1.6
3,1,1,10,1.6,0.413483,0,1.0,0.1,-1.0,0.2
3,1,1,11,-0.2,0.515573,0,-1.0,0.1,1.0,1.6
3,1,1,12,-0.2,0.620707,1,1.0,0.1,-1.0,-0.2
3,1,1,13,-0.8,0.378214,1,1.0,0.1,1.0,-0.2
3,1,1,14,-0.8,0.40153,1,1.0,0.1,1.0,-0.8
3,1,1,15,-0.2,0.543921,0,-1.0,0.1,1.0,-0.8
3,1,1,16,0.2,0.616366,1,-1.0,0.1,-1.0,-0.2
3,1,1,17,-0.2,0.41371,1,1.0,0.1,-1.0,0.2
3,1,1,18,0.2,0.491793,0,1.0,0.1,1.0,-0.2
3,1,1,19,0.8,0.438457,0,1.0,0.1,1.0,0.2
3,1,1,20,-0.8,0.403401,1,1.0,0.1,1.0,0.8
3,1,1,21,0.8,0.433307,0,1.0,0.1,1.0,-0.8
3,1,1,22,0.2,0.542056,1,-1.0,0.1,1.0,0.8
3,1,1,23,-0.2,0.510748,0,-1.0,0.1,-1.0,0.2
3,1,1,24,1.6,0.392726,0,1.0,1.1,-1.0,-0.2
3,1,1,25,-1.6,0.391504,1,1.0,0.1,1.0,1.6
3,1,1,26,0.2,0.51833,1,-1.0,0.1,1.0,-1.6
3,1,1,27,-0.8,0.559821,1,1.0,1.1,-1.0,0.2
3,1,1,28,-1.6,0.455621,1,1.0,0.1,1.0,-0.8
3,1,1,29,0.2,0.531766,1,-1.0,0.1,1.0,-1.6
3,1,1,30,0.8,0.5727,0,1.0,0.1,-1.0,0.2
3,1,1,31,0.2,0.387857,1,-1.0,0.1,1.0,0.8
3,1,1,32,0.8,0.562822,0,1.0,0.1,-1.0,0.2
3,1,1,33,-0.8,0.466655,1,1.0,0.1,1.0,0.8
3,1,1,34,0.2,0.662235,0,1.0,0.1,1.0,-0.8
3,1,1,35,-0.8,0.506246,0,-1.0,0.1,1.0,0.2
3,1,1,36,-0.2,0.604176,1,1.0,1.1,-1.0,-0.8
3,1,1,37,-1.6,0.306298,1,1.0,0.1,1.0,-0.2
3,1,1,38,0.8,0.356554,1,-1.0,0.1,1.0,-1.6
3,1,1,39,1.6,0.556548,0,1.0,0.1,-1.0,0.8
3,1,1,40,0.8,0.436564,1,-1.0,1.1,1.0,1.6
3,1,1,41,0.8,0.361298,0,1.0,0.1,-1.0,0.8
3,1,1,42,0.2,0.465204,1,-1.0,0.1,1.0,0.8
3,1,1,43,-0.2,0.509202,1,1.0,0.1,-1.0,0.2
3,1,1,44,-0.8,0.407463,1,1.0,1.1,1.0,-0.2
3,1,1,45,-0.2,0.413535,0,-1.0,0.1,1.0,-0.8
3,1,1,46,1.6,0.299532,1,-1.0,0.1,-1.0,-0.2
3,1,1,47,-0.8,0.365423,1,1.0,0.1,-1.0,1.6
3,1,1,48,0.2,0.332931,1,-1.0,0.1,1.0,-0.8
3,1,1,49,-0.8,0.357644,1,1.0,1.1,-1.0,0.2
3,1,1,50,-0.2,0.3579,0,-1.0,0.1,1.0,-0.8
3,1,1,51,-0.8,0.37392,1,1.0,0.1,-1.0,-0.2
3,1,1,52,-0.2,0.413376,1,1.0,0.1,1.0,-0.8
3,1,1,53,0.8,0.435427,0,1.0,0.1,1.0,-0.2
3,1,1,54,0.8,0.400043,0,1.0,0.1,1.0,0.8
3,1,1,55,1.6,0.446095,0,1.0,0.1,1.0,0.8
3,1,1,56,0.2,0.346822,0,1.0,0.1,1.0,1.6
3,1,1,57,0.8,0.339473,0,1.0,0.1,1.0,0.2
3,1,1,58,0.8,0.316323,0,1.0,0.1,1.0,0.8
3,1,1,59,-1.6,0.525586,1,1.0,0.1,1.0,0.8
3,1,1,60,-0.8,0.479119,1,1.0,1.1,1.0,-1.6
3,1,1,61,-0.8,0.442465,1,1.0,1.1,1.0,-0.8
3,1,1,62,-0.8,0.383088,1,1.0,1.1,1.0,-0.8
3,1,1,63,-0.8,0.454072,1,1.0,0.1,1.0,-0.8
3,1,1,64,-0.8,0.377927,1,1.0,0.1,1.0,-0.8
3,1,1,65,-0.2,0.433299,1,1.0,0.1,1.0,-0.8
3,1,1,66,1.6,0.510034,0,1.0,0.1,1.0,-0.2
3,1,1,67,-0.2,0.448169,1,1.0,0.1,1.0,1.6
3,1,1,68,-0.2,0.532819,1,1.0,1.1,1.0,-0.2
3,1,1,69,-0.2,0.5577,1,1.0,0.1,1.0,-0.2
3,1,1,70,-0.2,0.637681,1,1.0,1.1,1.0,-0.2
3,1,1,71,0.8,0.474504,0,1.0,0.1,1.0,-0.2
3,1,1,72,-0.2,0.3739,0,-1.0,0.1,1.0,0.8
3,1,1,73,-0.8,0.525203,1,1.0,0.1,-1.0,-0.2
3,1,1,74,0.2,0.534563,0,1.0,0.1,1.0,-0.8
3,1,1,75,-0.2,0.431324,0,-1.0,0.1,1.0,0.2
3,1,1,76,-0.2,0.516688,1,1.0,0.1,-1.0,-0.2
3,1,1,77,-1.6,0.390057,1,1.0,0.1,1.0,-0.2
3,1,1,78,0.8,0.5329,0,1.0,1.1,1.0,-1.6
3,1,1,79,-0.2,0.397711,1,1.0,0.1,1.0,0.8
3,1,1,80,-1.6,0.348161,1,1.0,1.1,1.0,-0.2
3,1,1,81,1.6,0.412973,0,1.0,0.1,1.0,-1.6
3,1,1,82,-0.2,0.491136,0,-1.0,0.1,1.0,1.6
3,1,1,83,0.2,0.421889,0,1.0,0.1,-1.0,-0.2
3,1,1,84,0.2,0.459303,0,1.0,0.1,1.0,0.2
3,1,1,85,-0.8,0.455481,0,-1.0,0.1,1.0,0.2
3,1,1,86,1.6,0.379268,0,1.0,1.1,-1.0,-0.8
3,1,1,87,0.2,0.450882,0,1.0,0.1,1.0,1.6
3,1,1,88,0.2,0.438867,0,1.0,0.1,1.0,0.2
3,1,1,89,1.6,0.259668,0,1.0,0.1,1.0,0.2
3,1,1,90,0.2,0.383532,1,-1.0,0.1,1.0,1.6
3,1,1,91,-1.6,0.342318,1,1.0,0.1,-1.0,0.2
3,1,1,92,-0.2,0.47918,0,-1.0,0.1,1.0,-1.6
3,1,1,93,0.8,0.466647,0,1.0,0.1,-1.0,-0.2
3,1,1,94,0.8,0.429883,0,1.0,0.1,1.0,0.8
3,1,1,95,0.2,0.443282,0,1.0,1.1,1.0,0.8
3,1,1,96,-1.6,0.407946,1,1.0,0.1,1.0,0.2
3,1,1,97,0.8,0.453974,0,1.0,0.1,1.0,-1.6
3,1,1,98,-0.2,0.538084,1,1.0,1.1,1.0,0.8
3,1,1,100,0.8,0.645638,0,1.0,0.1,0.0,0.2
3,1,1,101,0.8,0.402256,0,1.0,1.1,1.0,0.8
3,1,1,102,-1.6,0.37639,1,1.0,0.1,1.0,0.8
3,1,1,103,0.8,0.479884,1,-1.0,0.1,1.0,-1.6
3,1,1,104,0.2,0.32318,1,-1.0,1.1,-1.0,0.8
3,1,1,105,-1.6,0.372544,1,1.0,0.1,-1.0,0.2
3,1,1,106,-0.2,0.46797,1,1.0,1.1,1.0,-1.6
3,1,1,107,-0.8,0.527402,1,1.0,0.1,1.0,-0.2
3,1,1,108,0.2,0.472936,1,-1.0,0.1,1.0,-0.8
3,1,1,109,0.2,0.332208,1,-1.0,0.1,-1.0,0.2
3,1,1,110,-1.6,0.388977,1,1.0,0.1,-1.0,0.2
3,2,1,1,-1.6,0.555553,1,1.0,1.1,0.0,-100.0
3,2,1,2,-0.2,0.387598,1,1.0,0.1,1.0,-1.6
3,2,1,3,-0.8,0.386569,1,1.0,0.1,1.0,-0.2
3,2,1,4,-0.8,0.393182,1,1.0,0.1,1.0,-0.8
3,2,1,5,0.8,0.37573,0,1.0,0.1,1.0,-0.8
3,2,1,6,-0.2,0.535066,1,1.0,0.1,1.0,0.8
3,2,1,7,-0.8,0.360096,1,1.0,0.1,1.0,-0.2
3,2,1,8,-0.8,0.47271,1,1.0,0.1,1.0,-0.8
3,2,1,9,-0.8,0.40341,1,1.0,0.1,1.0,-0.8
3,2,1,10,0.8,0.417639,0,1.0,0.1,1.0,-0.8
3,2,1,11,-0.2,0.502859,1,1.0,0.1,1.0,0.8
3,2,1,12,0.2,0.481056,0,1.0,0.1,1.0,-0.2
3,2,1,13,1.6,0.460291,0,1.0,0.1,1.0,0.2
3,2,1,14,-0.2,0.432399,1,1.0,1.1,1.0,1.6
3,2,1,16,1.6,0.422517,0,1.0,0.1,0.0,0.2
3,2,1,17,-0.2,0.395983,0,-1.0,0.1,1.0,1.6
3,2,1,18,0.2,0.474683,0,1.0,1.1,-1.0,-0.2
3,2,1,19,-0.2,0.333955,1,1.0,0.1,1.0,0.2
3,2,1,20,0.8,0.318854,1,-1.0,0.1,1.0,-0.2
3,2,1,21,-0.2,0.344867,1,1.0,0.1,-1.0,0.8
3,2,1,22,-0.2,0.432877,0,-1.0,0.1,1.0,-0.2
3,2,1,23,1.6,0.36552,0,1.0,0.1,-1.0,-0.2
3,2,1,24,0.2,0.42984,0,1.0,1.1,1.0,1.6
3,2,1,25,-0.8,0.355173,1,1.0,0.1,1.0,0.2
3,2,1,26,-1.6,0.347158,1,1.0,0.1,1.0,-0.8
3,2,1,27,-0.8,0.395889,1,1.0,0.1,1.0,-1.6
3,2,1,28,-0.2,0.426606,0,-1.0,0.1,1.0,-0.8
3,2,1,29,1.6,0.368103,0,1.0,0.1,-1.0,-0.2
3,2,1,30,0.8,0.335372,0,1.0,0.1,1.0,1.6
3,2,1,31,0.2,0.408129,1,-1.0,0.1,1.0,0.8
3,2,1,32,0.8,0.254118,1,-1.0,0.1,-1.0,0.2
3,2,1,33,-0.2,0.354961,1,1.0,0.1,-1.0,0.8
3,2,1,34,0.2,0.37812,0,1.0,0.1,1.0,-0.2
3,2,1,35,0.2,0.353679,0,1.0,0.1,1.0,0.2
3,2,1,36,0.8,0.37773,0,1.0,0.1,1.0,0.2
3,2,1,37,-0.2,0.272951,0,-1.0,1.1,1.0,0.8
3,2,1,38,0.8,0.364554,0,1.0,0.1,-1.0,-0.2
3,2,1,39,-1.6,0.404384,1,1.0,1.1,1.0,0.8
3,2,1,40,1.6,0.346552,0,1.0,1.1,1.0,-1.6
3,2,1,41,-0.8,0.507327,1,1.0,0.1,1.0,1.6
3,2,1,42,-1.6,0.413944,1,1.0,0.1,1.0,-0.8
3,2,1,43,-0.8,0.467351,1,1.0,1.1,1.0,-1.6
3,2,1,44,0.2,0.415209,0,1.0,0.1,1.0,-0.8
3,2,1,45,0.8,0.380383,0,1.0,1.1,1.0,0.2
3,2,1,46,-0.2,0.443686,1,1.0,0.1,1.0,0.8
3,2,1,47,0.8,0.416393,0,1.0,0.1,1.0,-0.2
3,2,1,48,-0.8,0.365811,1,1.0,0.1,1.0,0.8
3,2,1,49,0.8,0.46917,0,1.0,0.1,1.0,-0.8
3,2,1,50,-0.8,0.489121,1,1.0,0.1,1.0,0.8
3,2,1,51,-1.6,0.44327,1,1.0,0.1,1.0,-0.8
3,2,1,52,0.8,0.447995,0,1.0,0.1,1.0,-1.6
3,2,1,53,0.2,0.420894,0,1.0,0.1,1.0,0.8
3,2,1,54,1.6,0.330135,0,1.0,1.1,1.0,0.2
3,2,1,55,1.6,0.37964,0,1.0,0.1,1.0,1.6
3,2,1,56,0.2,0.322872,1,-1.0,1.1,1.0,1.6
3,2,1,57,1.6,0.316474,0,1.0,0.1,-1.0,0.2
3,2,1,58,-0.2,0.382072,0,-1.0,1.1,1.0,1.6
3,2,1,59,0.8,0.341188,1,-1.0,0.1,-1.0,-0.2
3,2,1,60,-1.6,0.454616,1,1.0,0.1,-1.0,0.8
3,2,1,61,-0.8,0.545994,0,-1.0,1.1,1.0,-1.6
3,2,1,62,0.8,0.426692,1,-1.0,0.1,-1.0,-0.8
3,2,1,63,-0.2,0.504227,1,1.0,0.1,-1.0,0.8
3,2,1,64,-0.2,0.546184,0,-1.0,0.1,1.0,-0.2
3,2,1,65,0.2,0.379031,0,1.0,0.1,-1.0,-0.2
3,2,1,66,-1.6,0.402224,1,1.0,1.1,1.0,0.2
3,2,1,67,-0.2,0.45686,0,-1.0,0.1,1.0,-1.6
3,2,1,68,-1.6,0.372647,0,-1.0,0.1,-1.0,-0.2
3,2,1,69,0.2,0.532004,0,1.0,0.1,-1.0,-1.6
3,2,1,70,0.2,0.429268,0,1.0,0.1,1.0,0.2
3,2,1,71,-1.6,0.427431,1,1.0,0.1,1.0,0.2
3,2,1,72,-0.2,0.367985,1,1.0,0.1,1.0,-1.6
3,2,1,73,-0.2,0.343517,0,-1.0,0.1,1.0,-0.2
3,2,1,74,0.2,0.528157,0,1.0,1.1,-1.0,-0.2
3,2,1,75,-0.8,0.410258,1,1.0,0.1,1.0,0.2
3,2,1,76,-1.6,0.5197,1,1.0,0.1,1.0,-0.8
3,2,1,77,-0.2,0.673016,0,-1.0,0.1,1.0,-1.6
3,2,1,78,0.8,0.476344,0,1.0,0.1,-1.0,-0.2
3,2,1,79,0.2,0.343831,0,1.0,0.1,1.0,0.8
3,2,1,80,1.6,0.456449,0,1.0,0.1,1.0,0.2
3,2,1,81,-0.8,0.628438,0,-1.0,0.1,1.0,1.6
3,2,1,82,-0.8,0.313885,0,-1.0,1.1,-1.0,-0.8
3,2,1,83,-0.8,0.29194,0,-1.0,0.1,-1.0,-0.8
3,2,1,84,0.8,0.527385,0,1.0,0.1,-1.0,-0.8
3,2,1,85,0.2,0.400199,0,1.0,1.1,1.0,0.8
3,2,1,86,0.8,0.374868,0,1.0,0.1,1.0,0.2
3,2,1,87,0.2,0.213761,0,1.0,1.1,1.0,0.8
3,2,1,88,0.2,0.451631,0,1.0,0.1,1.0,0.2
3,2,1,89,-0.2,0.375827,0,-1.0,0.1,1.0,0.2
3,2,1,90,0.2,0.311313,0,1.0,0.1,-1.0,-0.2
3,2,1,91,1.6,0.233858,0,1.0,0.1,1.0,0.2
3,2,1,92,1.6,0.261908,0,1.0,0.1,1.0,1.6
3,2,1,93,-0.2,0.258037,0,-1.0,0.1,1.0,1.6
3,2,1,94,-0.8,0.237977,0,-1.0,0.1,-1.0,-0.2
3,2,1,95,-0.2,0.314714,1,1.0,0.1,-1.0,-0.8
3,2,1,96,0.2,0.452625,1,-1.0,0.1,1.0,-0.2
3,2,1,97,-1.6,0.36143,0,-1.0,0.1,-1.0,0.2
3,2,1,98,0.8,0.384849,0,1.0,0.1,-1.0,-1.6
3,2,1,99,0.8,0.327549,0,1.0,0.1,1.0,0.8
3,2,1,100,0.2,0.392947,0,1.0,1.1,1.0,0.8
3,2,1,101,-0.8,0.383595,1,1.0,1.1,1.0,0.2
3,2,1,102,0.2,0.350546,1,-1.0,0.1,1.0,-0.8
3,2,1,103,0.2,0.422595,0,1.0,1.1,-1.0,0.2
3,2,1,104,-0.2,0.339968,0,-1.0,0.1,1.0,0.2
3,2,1,105,-0.8,0.404638,1,1.0,0.1,-1.0,-0.2
3,2,1,106,0.8,0.466842,0,1.0,0.1,1.0,-0.8
3,2,1,107,0.8,0.462105,0,1.0,1.1,1.0,0.8
3,2,1,108,-0.8,0.402246,1,1.0,0.1,1.0,0.8
3,2,1,109,1.6,0.432317,0,1.0,0.1,1.0,-0.8
3,2,1,110,-1.6,0.517139,1,1.0,0.1,1.0,1.6
3,3,1,2,0.8,0.388408,0,1.0,0.1,0.0,-1.6
3,3,1,3,-0.8,0.474758,0,-1.0,0.1,1.0,0.8
3,3,1,4,0.2,0.470146,0,1.0,0.1,-1.0,-0.8
3,3,1,5,0.8,0.345722,0,1.0,0.1,1.0,0.2
3,3,1,6,0.8,0.418322,0,1.0,0.1,1.0,0.8
3,3,1,7,0.2,0.375718,0,1.0,0.1,1.0,0.8
3,3,1,8,1.6,0.367179,0,1.0,1.1,1.0,0.2
3,3,1,9,-0.8,0.350756,1,1.0,1.1,1.0,1.6
3,3,1,10,1.6,0.366686,0,1.0,0.1,1.0,-0.8
3,3,1,11,0.2,0.422475,0,1.0,0.1,1.0,1.6
3,3,1,12,0.2,0.33914,0,1.0,0.1,1.0,0.2
3,3,1,13,1.6,0.356201,0,1.0,1.1,1.0,0.2
3,3,1,14,-0.8,0.308228,0,-1.0,0.1,1.0,1.6
3,3,1,15,1.6,0.286253,0,1.0,0.1,-1.0,-0.8
3,3,1,16,-0.8,0.304916,0,-1.0,0.1,1.0,1.6
3,3,1,17,1.6,0.291066,0,1.0,0.1,-1.0,-0.8
3,3,1,18,1.6,0.477834,0,1.0,0.1,1.0,1.6
3,3,1,19,-0.8,0.384862,1,1.0,0.1,1.0,1.6
3,3,1,20,-1.6,0.431941,1,1.0,0.1,1.0,-0.8
3,3,1,21,-0.8,0.468603,1,1.0,0.1,1.0,-1.6
3,3,1,22,0.2,0.391914,0,1.0,0.1,1.0,-0.8
3,3,1,23,0.8,0.366684,0,1.0,0.1,1.0,0.2
3,3,1,24,0.2,0.366117,0,1.0,0.1,1.0,0.8
3,3,1,25,-0.8,0.429315,1,1.0,0.1,1.0,0.2
3,3,1,26,-0.2,0.354964,0,-1.0,0.1,1.0,-0.8
3,3,1,27,0.8,0.274953,0,1.0,0.1,-1.0,-0.2
3,3,1,28,0.2,0.302425,0,1.0,0.1,1.0,0.8
3,3,1,29,-0.8,0.496272,1,1.0,0.1,1.0,0.2
3,3,1,30,0.2,0.331131,0,1.0,1.1,1.0,-0.8
3,3,1,31,0.8,0.404488,0,1.0,0.1,1.0,0.2
3,3,1,32,-0.8,0.402461,1,1.0,0.1,1.0,0.8
3,3,1,33,0.8,0.408736,0,1.0,1.1,1.0,-0.8
3,3,1,34,-0.8,0.430705,0,-1.0,1.1,1.0,0.8
3,3,1,35,-1.6,0.372053,0,-1.0,0.1,-1.0,-0.8
3,3,1,36,-1.6,0.475502,1,1.0,1.1,-1.0,-1.6
3,3,1,37,-1.6,0.414942,1,1.0,0.1,1.0,-1.6
3,3,1,38,1.6,0.428867,0,1.0,0.1,1.0,-1.6
3,3,1,39,0.8,0.298442,0,1.0,0.1,1.0,1.6
3,3,1,40,-1.6,0.404937,1,1.0,0.1,1.0,0.8
3,3,1,41,0.2,0.411082,0,1.0,1.1,1.0,-1.6
3,3,1,42,1.6,0.409163,0,1.0,0.1,1.0,0.2
3,3,1,43,-0.8,0.503171,0,-1.0,0.1,1.0,1.6
3,3,1,44,-1.6,0.329287,1,1.0,0.1,-1.0,-0.8
3,3,1,45,-0.2,0.458608,0,-1.0,0.1,1.0,-1.6
3,3,1,46,0.2,0.367415,0,1.0,1.1,-1.0,-0.2
3,3,1,47,0.2,0.454254,0,1.0,0.1,1.0,0.2
3,3,1,48,-0.2,0.402125,0,-1.0,0.1,1.0,0.2
3,3,1,49,0.8,0.432141,0,1.0,1.1,-1.0,-0.2
3,3,1,50,-1.6,0.52494,1,1.0,1.1,1.0,0.8
3,3,1,51,-0.2,0.398429,0,-1.0,0.1,1.0,-1.6
3,3,1,52,-0.8,0.332337,0,-1.0,1.1,-1.0,-0.2
3,3,1,53,-0.2,0.405222,1,1.0,1.1,-1.0,-0.8
3,3,1,54,0.2,0.451327,0,1.0,0.1,1.0,-0.2
3,3,1,55,0.2,0.439207,1,-1.0,0.1,1.0,0.2
3,3,1,56,-0.8,0.483929,1,1.0,0.1,-1.0,0.2
3,3,1,57,-0.2,0.39072,1,1.0,0.1,1.0,-0.8
3,3,1,58,-0.2,0.389396,1,1.0,0.1,1.0,-0.2
3,3,1,59,0.2,0.324349,1,-1.0,0.1,1.0,-0.2
3,3,1,60,0.2,0.301484,1,-1.0,1.1,-1.0,0.2
3,3,1,61,0.2,0.31184,1,-1.0,0.1,-1.0,0.2
3,3,1,62,-0.8,0.369764,1,1.0,0.1,-1.0,0.2
3,3,1,63,0.2,0.281222,1,-1.0,1.1,1.0,-0.8
3,3,1,64,0.8,0.316655,0,1.0,0.1,-1.0,0.2
3,3,1,66,-0.2,0.344157,0,-1.0,0.1,0.0,-0.2
3,3,1,67,0.2,0.304846,0,1.0,0.1,-1.0,-0.2
3,3,1,68,-0.8,0.410881,1,1.0,0.1,1.0,0.2
3,3,1,69,1.6,0.416977,0,1.0,0.1,1.0,-0.8
3,3,1,70,-0.8,0.398187,1,1.0,0.1,1.0,1.6
3,3,1,71,-0.2,0.493015,0,-1.0,0.1,1.0,-0.8
3,3,1,72,-1.6,0.391716,0,-1.0,0.1,-1.0,-0.2
3,3,1,73,-0.8,0.24653,0,-1.0,1.1,-1.0,-1.6
3,3,1,74,-0.2,0.579142,1,1.0,0.1,-1.0,-0.8
3,3,1,75,1.6,0.459467,0,1.0,0.1,1.0,-0.2
3,3,1,76,-0.8,0.414522,1,1.0,1.1,1.0,1.6
3,3,1,77,-0.2,0.460683,1,1.0,0.1,1.0,-0.8
3,3,1,78,-0.2,0.440737,0,-1.0,0.1,1.0,-0.2
3,3,1,79,0.8,0.526032,0,1.0,0.1,-1.0,-0.2
3,3,1,80,-1.6,0.446888,1,1.0,1.1,1.0,0.8
3,3,1,81,0.8,0.459766,0,1.0,0.1,1.0,-1.6
3,3,1,82,0.2,0.423729,0,1.0,0.1,1.0,0.8
3,3,1,83,-1.6,0.453,1,1.0,0.1,1.0,0.2
3,3,1,84,0.2,0.473296,0,1.0,0.1,1.0,-1.6
3,3,1,85,-0.2,0.388851,1,1.0,0.1,1.0,0.2
3,3,1,86,-0.2,0.427234,1,1.0,0.1,1.0,-0.2
3,3,1,87,0.2,0.400601,0,1.0,0.1,1.0,-0.2
3,3,1,88,-0.2,0.462578,1,1.0,0.1,1.0,0.2
3,3,1,89,0.8,0.346715,0,1.0,0.1,1.0,-0.2
3,3,1,90,1.6,0.483477,1,-1.0,0.1,1.0,0.8
3,3,1,91,0.8,0.318124,0,1.0,0.1,-1.0,1.6
3,3,1,92,-0.2,0.327543,0,-1.0,0.1,1.0,0.8
3,3,1,93,-1.6,0.216919,1,1.0,0.1,-1.0,-0.2
3,3,1,94,1.6,0.438382,0,1.0,0.1,1.0,-1.6
3,3,1,95,-0.2,0.435747,1,1.0,0.1,1.0,1.6
3,3,1,96,0.8,0.399833,0,1.0,0.1,1.0,-0.2
3,3,1,97,0.8,0.389741,0,1.0,0.1,1.0,0.8
3,3,1,98,0.8,0.437547,0,1.0,1.1,1.0,0.8
3,3,1,99,0.2,0.489451,1,-1.0,1.1,1.0,0.8
3,3,1,100,-0.2,0.564186,1,1.0,0.1,-1.0,0.2
3,3,1,101,0.8,0.436236,0,1.0,0.1,1.0,-0.2
3,3,1,102,-0.2,0.408858,1,1.0,0.1,1.0,0.8
3,3,1,103,0.2,0.494972,0,1.0,1.1,1.0,-0.2
3,3,1,104,-0.2,0.377634,0,-1.0,0.1,1.0,0.2
3,3,1,106,-0.8,0.427063,1,1.0,1.1,0.0,-0.2
3,3,1,107,-0.8,0.304524,1,1.0,0.1,1.0,-0.8
3,3,1,108,0.8,0.386944,1,-1.0,0.1,1.0,-0.8
3,3,1,109,0.8,0.353311,1,-1.0,0.1,-1.0,0.8
3,3,1,110,-0.2,0.345552,1,1.0,0.1,-1.0,0.8
3,1,2,1,0.2,0.417382,1,-1.0,0.1,0.0,-100.0
3,1,2,2,-0.8,0.382589,1,1.0,0.1,-1.0,0.2
3,1,2,3,1.6,0.453472,0,1.0,0.1,1.0,-0.8
3,1,2,4,-1.6,0.305573,1,1.0,0.1,1.0,1.6
3,1,2,5,0.2,0.411483,0,1.0,0.1,1.0,-1.6
3,1,2,6,-0.2,0.545782,1,1.0,0.1,1.0,0.2
3,1,2,7,-0.2,0.442169,1,1.0,0.1,1.0,-0.2
3,1,2,8,-1.6,0.3669,1,1.0,0.1,1.0,-0.2
3,1,2,9,0.2,0.462554,0,1.0,1.1,1.0,-1.6
3,1,2,10,0.2,0.418365,0,1.0,0.1,1.0,0.2
3,1,2,11,0.8,0.391873,0,1.0,0.1,1.0,0.2
3,1,2,12,0.8,0.414621,0,1.0,0.1,1.0,0.8
3,1,2,13,-0.8,0.404298,1,1.0,1.1,1.0,0.8
3,1,2,14,-0.8,0.434126,1,1.0,1.1,1.0,-0.8
3,1,2,15,-0.2,0.462737,1,1.0,0.1,1.0,-0.8
3,1,2,16,0.8,0.43491,0,1.0,1.1,1.0,-0.2
3,1,2,17,-0.8,0.3597,1,1.0,1.1,1.0,0.8
3,1,2,18,-0.2,0.528079,0,-1.0,0.1,1.0,-0.8
3,1,2,19,-1.6,0.441107,1,1.0,0.1,-1.0,-0.2
3,1,2,20,-1.6,0.445866,1,1.0,0.1,1.0,-1.6
3,1,2,21,0.8,0.466502,0,1.0,1.1,1.0,-1.6
3,1,2,22,0.8,0.382012,0,1.0,0.1,1.0,0.8
3,1,2,23,1.6,0.349455,0,1.0,0.1,1.0,0.8
3,1,2,24,1.6,0.301434,0,1.0,0.1,1.0,1.6
3,1,2,25,0.2,0.343722,0,1.0,0.1,1.0,1.6
3,1,2,26,-0.8,0.408134,0,-1.0,0.1,1.0,0.2
3,1,2,27,-1.6,0.302206,1,1.0,1.1,-1.0,-0.8
3,1,2,28,0.8,0.496336,0,1.0,0.1,1.0,-1.6
3,1,2,29,0.8,0.355034,0,1.0,0.1,1.0,0.8
3,1,2,30,0.2,0.306977,1,-1.0,1.1,1.0,0.8
3,1,2,31,0.8,0.293394,1,-1.0,0.1,-1.0,0.2
3,1,2,32,-0.8,0.399928,0,-1.0,0.1,-1.0,0.8
3,1,2,33,0.8,0.38208,0,1.0,0.1,-1.0,-0.8
3,1,2,34,1.6,0.437451,0,1.0,0.1,1.0,0.8
3,1,2,35,-0.2,0.362241,1,1.0,1.1,1.0,1.6
3,1,2,36,-0.8,0.458107,1,1.0,0.1,1.0,-0.2
3,1,2,37,-0.2,0.542338,0,-1.0,0.1,1.0,-0.8
3,1,2,38,0.2,0.222908,1,-1.0,0.1,-1.0,-0.2
3,1,2,39,1.6,0.38823,0,1.0,0.1,-1.0,0.2
3,1,2,40,1.6,0.322984,1,-1.0,0.1,1.0,1.6
3,1,2,41,-0.8,0.316352,1,1.0,0.1,-1.0,1.6
3,1,2,42,0.8,0.437798,0,1.0,0.1,1.0,-0.8
3,1,2,43,-0.8,0.394678,1,1.0,0.1,1.0,0.8
3,1,2,44,-0.8,0.361316,0,-1.0,0.1,1.0,-0.8
3,1,2,45,-0.8,0.569408,0,-1.0,0.1,-1.0,-0.8
3,1,2,46,0.2,0.424738,0,1.0,1.1,-1.0,-0.8
3,1,2,47,0.2,0.542407,0,1.0,0.1,1.0,0.2
3,1,2,48,-0.2,0.478962,0,-1.0,0.1,1.0,0.2
3,1,2,49,0.8,0.44223,0,1.0,1.1,-1.0,-0.2
3,1,2,50,0.2,0.583271,0,1.0,0.1,1.0,0.8
3,1,2,51,0.2,0.34184,1,-1.0,0.1,1.0,0.2
3,1,2,52,0.2,0.382523,0,1.0,0.1,-1.0,0.2
3,1,2,53,-0.2,0.373097,1,1.0,0.1,1.0,0.2
3,1,2,54,-0.8,0.396446,1,1.0,0.1,1.0,-0.2
3,1,2,55,1.6,0.491317,0,1.0,0.1,1.0,-0.8
3,1,2,56,-0.8,0.445915,1,1.0,0.1,1.0,1.6
3,1,2,57,0.8,0.538837,0,1.0,1.1,1.0,-0.8
3,1,2,58,0.2,0.395506,0,1.0,0.1,1.0,0.8
3,1,2,59,-0.8,0.402249,1,1.0,0.1,1.0,0.2
3,1,2,60,0.2,0.440299,1,-1.0,1.1,1.0,-0.8
3,1,2,61,-1.6,0.405067,1,1.0,0.1,-1.0,0.2
3,1,2,62,-1.6,0.44318,1,1.0,0.1,1.0,-1.6
3,1,2,63,1.6,0.455896,0,1.0,1.1,1.0,-1.6
3,1,2,64,1.6,0.307859,0,1.0,0.1,1.0,1.6
3,1,2,65,0.8,0.309984,0,1.0,0.1,1.0,1.6
3,1,2,66,1.6,0.359966,0,1.0,0.1,1.0,0.8
3,1,2,67,0.2,0.447937,1,-1.0,0.1,1.0,1.6
3,1,2,68,0.8,0.372661,0,1.0,0.1,-1.0,0.2
3,1,2,69,0.2,0.372399,0,1.0,0.1,1.0,0.8
3,1,2,70,-0.8,0.46756,1,1.0,0.1,1.0,0.2
3,1,2,71,-0.2,0.48699,1,1.0,0.1,1.0,-0.8
3,1,2,72,0.8,0.497811,0,1.0,1.1,1.0,-0.2
3,1,2,73,-1.6,0.396631,1,1.0,0.1,1.0,0.8
3,1,2,74,0.2,0.427108,0,1.0,0.1,1.0,-1.6
3,1,2,75,-0.2,0.288492,1,1.0,1.1,1.0,0.2
3,1,2,76,-1.6,0.323268,1,1.0,0.1,1.0,-0.2
3,1,2,77,-0.2,0.300581,0,-1.0,0.1,1.0,-1.6
3,1,2,78,0.8,0.318751,0,1.0,0.1,-1.0,-0.2
3,1,2,79,0.2,0.512084,0,1.0,0.1,1.0,0.8
3,1,2,80,0.8,0.370124,0,1.0,1.1,1.0,0.2
3,1,2,81,1.6,0.441607,1,-1.0,1.1,1.0,0.8
3,1,2,82,-0.2,0.366234,1,1.0,0.1,-1.0,1.6
3,1,2,83,0.8,0.293732,0,1.0,0.1,1.0,-0.2
3,1,2,84,1.6,0.304455,0,1.0,0.1,1.0,0.8
3,1,2,85,-0.2,0.394607,1,1.0,0.1,1.0,1.6
3,1,2,86,0.2,0.369195,0,1.0,0.1,1.0,-0.2
3,1,2,87,0.2,0.304634,0,1.0,0.1,1.0,0.2
3,1,2,88,-0.2,0.402512,1,1.0,0.1,1.0,0.2
3,1,2,89,-0.8,0.320594,1,1.0,0.1,1.0,-0.2
3,1,2,90,-0.8,0.449942,0,-1.0,1.1,1.0,-0.8
3,1,2,91,-0.2,0.390299,0,-1.0,0.1,-1.0,-0.8
3,1,2,92,-1.6,0.372925,1,1.0,0.1,-1.0,-0.2
3,1,2,93,0.8,0.428218,0,1.0,1.1,1.0,-1.6
3,1,2,94,-1.6,0.47362,1,1.0,0.1,1.0,0.8
3,1,2,95,-0.2,0.437158,0,-1.0,0.1,1.0,-1.6
3,1,2,96,0.2,0.417885,0,1.0,0.1,-1.0,-0.2
3,1,2,97,0.2,0.359201,1,-1.0,0.1,1.0,0.2
3,1,2,98,-0.2,0.399243,0,-1.0,1.1,-1.0,0.2
3,1,2,99,-0.8,0.373308,1,1.0,0.1,-1.0,-0.2
3,1,2,100,-0.8,0.332752,1,1.0,0.1,1.0,-0.8
3,1,2,101,-1.6,0.389483,1,1.0,0.1,1.0,-0.8
3,1,2,102,0.8,0.267973,1,-1.0,0.1,1.0,-1.6
3,1,2,103,-0.2,0.383627,0,-1.0,0.1,-1.0,0.8
3,1,2,104,0.2,0.39024,0,1.0,1.1,-1.0,-0.2
3,1,2,105,-0.2,0.380965,1,1.0,0.1,1.0,0.2
3,1,2,106,-0.2,0.41252,1,1.0,0.1,1.0,-0.2
3,1,2,107,-0.2,0.362319,1,1.0,0.1,1.0,-0.2
3,1,2,108,-0.8,0.426442,1,1.0,0.1,1.0,-0.2
3,1,2,109,-0.2,0.471648,1,1.0,0.1,1.0,-0.8
3,1,2,110,-0.2,0.387194,1,1.0,0.1,1.0,-0.2
3,2,2,1,-0.8,0.385176,1,1.0,1.1,0.0,-100.0
3,2,2,2,-1.6,0.391166,1,1.0,1.1,1.0,-0.8
3,2,2,3,0.2,0.365984,1,-1.0,0.1,1.0,-1.6
3,2,2,4,-0.8,0.397229,1,1.0,0.1,-1.0,0.2
3,2,2,5,0.8,0.388051,0,1.0,0.1,1.0,-0.8
3,2,2,6,-1.6,0.330765,1,1.0,0.1,1.0,0.8
3,2,2,7,0.8,0.444128,0,1.0,0.1,1.0,-1.6
3,2,2,8,-0.8,0.369261,1,1.0,1.1,1.0,0.8
3,2,2,9,0.8,0.368837,0,1.0,0.1,1.0,-0.8
3,2,2,10,-1.6,0.399659,1,1.0,0.1,1.0,0.8
3,2,2,11,0.2,0.341888,0,1.0,0.1,1.0,-1.6
3,2,2,12,-0.8,0.343042,1,1.0,0.1,1.0,0.2
3,2,2,13,1.6,0.344123,0,1.0,1.1,1.0,-0.8
3,2,2,14,-0.2,0.415755,1,1.0,0.1,1.0,1.6
3,2,2,16,-0.8,0.461355,0,-1.0,0.1,0.0,-0.2
3,2,2,17,-0.2,0.418055,0,-1.0,0.1,-1.0,-0.8
3,2,2,18,-0.2,0.383195,1,1.0,0.1,-1.0,-0.2
3,2,2,19,-0.2,0.381647,0,-1.0,0.1,1.0,-0.2
3,2,2,20,-0.2,0.43727,1,1.0,0.1,-1.0,-0.2
3,2,2,21,-0.8,0.385775,0,-1.0,1.1,1.0,-0.2
3,2,2,22,-0.8,0.408344,1,1.0,0.1,-1.0,-0.8
3,2,2,23,0.2,0.415222,0,1.0,1.1,1.0,-0.8
3,2,2,24,0.2,0.469263,0,1.0,0.1,1.0,0.2
3,2,2,25,-0.8,0.464789,1,1.0,0.1,1.0,0.2
3,2,2,26,0.8,0.435884,1,-1.0,0.1,1.0,-0.8
3,2,2,27,-0.2,0.42467,1,1.0,0.1,-1.0,0.8
3,2,2,28,1.6,0.38293,0,1.0,0.1,1.0,-0.2
3,2,2,29,-0.8,0.429776,1,1.0,0.1,1.0,1.6
3,2,2,30,1.6,0.458247,0,1.0,0.1,1.0,-0.8
3,2,2,31,0.2,0.398258,1,-1.0,1.1,1.0,1.6
3,2,2,32,0.8,0.437148,0,1.0,0.1,-1.0,0.2
3,2,2,33,-1.6,0.433129,1,1.0,0.1,1.0,0.8
3,2,2,34,0.2,0.421766,0,1.0,0.1,1.0,-1.6
3,2,2,35,0.8,0.403186,0,1.0,0.1,1.0,0.2
3,2,2,36,-0.2,0.329826,1,1.0,0.1,1.0,0.8
3,2,2,37,-0.2,0.362773,0,-1.0,0.1,1.0,-0.2
3,2,2,38,0.8,0.330565,1,-1.0,0.1,-1.0,-0.2
3,2,2,39,0.2,0.395988,0,1.0,0.1,-1.0,0.8
3,2,2,40,-0.2,0.410892,1,1.0,1.1,1.0,0.2
3,2,2,41,0.2,0.432834,0,1.0,0.1,1.0,-0.2
3,2,2,42,0.8,0.413589,0,1.0,1.1,1.0,0.2
3,2,2,43,-0.2,0.539695,0,-1.0,0.1,1.0,0.8
3,2,2,44,-1.6,0.38115,1,1.0,1.1,-1.0,-0.2
3,2,2,45,-0.8,0.404678,1,1.0,0.1,1.0,-1.6
3,2,2,46,1.6,0.441795,0,1.0,0.1,1.0,-0.8
3,2,2,47,0.2,0.334534,0,1.0,0.1,1.0,1.6
3,2,2,48,-0.2,0.312071,0,-1.0,0.1,1.0,0.2
3,2,2,49,1.6,0.345384,1,-1.0,0.1,-1.0,-0.2
3,2,2,50,-0.8,0.410078,1,1.0,0.1,-1.0,1.6
3,2,2,51,0.8,0.464149,0,1.0,1.1,1.0,-0.8
3,2,2,52,0.2,0.484952,0,1.0,0.1,1.0,0.8
3,2,2,53,0.8,0.382959,0,1.0,1.1,1.0,0.2
3,2,2,54,0.2,0.40669,0,1.0,0.1,1.0,0.8
3,2,2,55,-1.6,0.395704,1,1.0,0.1,1.0,0.2
3,2,2,56,1.6,0.363174,0,1.0,0.1,1.0,-1.6
3,2,2,57,-0.2,0.418792,1,1.0,0.1,1.0,1.6
3,2,2,58,-1.6,0.399823,0,-1.0,0.1,1.0,-0.2
3,2,2,59,-1.6,0.405881,1,1.0,0.1,-1.0,-1.6
3,2,2,60,1.6,0.356731,0,1.0,0.1,1.0,-1.6
3,2,2,61,0.2,0.42034,0,1.0,0.1,1.0,1.6
3,2,2,62,-0.2,0.521421,1,1.0,1.1,1.0,0.2
3,2,2,63,0.2,0.402906,0,1.0,0.1,1.0,-0.2
3,2,2,64,-0.8,0.512837,1,1.0,1.1,1.0,0.2
3,2,2,65,0.2,0.435458,0,1.0,0.1,1.0,-0.8
3,2,2,66,-0.8,0.35998,1,1.0,0.1,1.0,0.2
3,2,2,67,0.2,0.367898,0,1.0,0.1,1.0,-0.8
3,2,2,68,1.6,0.39165,0,1.0,0.1,1.0,0.2
3,2,2,69,0.8,0.333976,0,1.0,0.1,1.0,1.6
3,2,2,70,1.6,0.319562,0,1.0,0.1,1.0,0.8
3,2,2,71,0.8,0.376091,0,1.0,0.1,1.0,1.6
3,2,2,72,-0.2,0.288381,0,-1.0,0.1,1.0,0.8
3,2,2,73,-0.2,0.299184,1,1.0,0.1,-1.0,-0.2
3,2,2,74,0.2,0.341008,0,1.0,1.1,1.0,-0.2
3,2,2,75,-0.8,0.404911,1,1.0,0.1,1.0,0.2
3,2,2,76,-0.2,0.387961,1,1.0,1.1,1.0,-0.8
3,2,2,77,0.2,0.498701,0,1.0,1.1,1.0,-0.2
3,2,2,78,0.8,0.388535,0,1.0,0.1,1.0,0.2
3,2,2,79,-0.8,0.299282,0,-1.0,0.1,1.0,0.8
3,2,2,80,0.2,0.461945,0,1.0,0.1,-1.0,-0.8
3,2,2,81,-0.2,0.362228,0,-1.0,1.1,1.0,0.2
3,2,2,83,-0.8,0.391471,0,-1.0,0.1,0.0,-0.8
3,2,2,84,-1.6,0.374522,0,-1.0,0.1,-1.0,-0.8
3,2,2,85,0.8,0.381522,0,1.0,0.1,-1.0,-1.6
3,2,2,86,0.2,0.325973,0,1.0,0.1,1.0,0.8
3,2,2,87,0.8,0.302487,0,1.0,0.1,1.0,0.2
3,2,2,88,1.6,0.3371,0,1.0,0.1,1.0,0.8
3,2,2,89,0.2,0.298158,0,1.0,1.1,1.0,1.6
3,2,2,90,-0.2,0.435799,0,-1.0,0.1,1.0,0.2
3,2,2,91,0.2,0.328513,0,1.0,0.1,-1.0,-0.2
3,2,2,92,1.6,0.338636,0,1.0,0.1,1.0,0.2
3,2,2,93,0.2,0.371626,1,-1.0,0.1,1.0,1.6
3,2,2,94,0.8,0.402297,0,1.0,0.1,-1.0,0.2
3,2,2,95,-0.2,0.440033,1,1.0,0.1,1.0,0.8
3,2,2,96,-1.6,0.429621,1,1.0,0.1,1.0,-0.2
3,2,2,97,-0.8,0.410115,1,1.0,0.1,1.0,-1.6
3,2,2,98,0.2,0.448299,0,1.0,1.1,1.0,-0.8
3,2,2,99,-1.6,0.34907,1,1.0,0.1,1.0,0.2
3,2,2,100,-0.2,0.381585,0,-1.0,0.1,1.0,-1.6
3,2,2,101,-0.8,0.371948,0,-1.0,0.1,-1.0,-0.2
3,2,2,102,-0.8,0.371202,1,1.0,1.1,-1.0,-0.8
3,2,2,103,-1.6,0.402457,1,1.0,0.1,1.0,-0.8
3,2,2,104,-0.2,0.384554,1,1.0,0.1,1.0,-1.6
3,2,2,105,0.8,0.416494,0,1.0,0.1,1.0,-0.2
3,2,2,106,0.8,0.413364,0,1.0,0.1,1.0,0.8
3,2,2,107,1.6,0.3878,0,1.0,0.1,1.0,0.8
3,2,2,108,0.8,0.338165,0,1.0,1.1,1.0,1.6
3,2,2,109,-0.2,0.38651,1,1.0,0.1,1.0,0.8
3,2,2,110,0.8,0.385669,0,1.0,0.1,1.0,-0.2
3,3,2,1,0.2,0.609699,0,1.0,1.1,0.0,-100.0
3,3,2,2,0.8,0.470618,0,1.0,1.1,1.0,0.2
3,3,2,3,0.2,0.402052,0,1.0,1.1,1.0,0.8
3,3,2,4,-0.2,0.416503,0,-1.0,0.1,1.0,0.2
3,3,2,5,-0.8,0.389526,0,-1.0,0.1,-1.0,-0.2
3,3,2,6,0.2,0.421014,0,1.0,0.1,-1.0,-0.8
3,3,2,7,-0.8,0.44241,0,-1.0,1.1,1.0,0.2
3,3,2,8,1.6,0.383308,0,1.0,0.1,-1.0,-0.8
3,3,2,9,-0.8,0.477245,1,1.0,0.1,1.0,1.6
3,3,2,10,0.8,0.441454,0,1.0,0.1,1.0,-0.8
3,3,2,11,1.6,0.405356,0,1.0,0.1,1.0,0.8
3,3,2,12,-0.2,0.644049,0,-1.0,0.1,1.0,1.6
3,3,2,13,0.2,0.376818,0,1.0,0.1,-1.0,-0.2
3,3,2,14,-0.2,0.407375,1,1.0,0.1,1.0,0.2
3,3,2,15,1.6,0.34958,0,1.0,0.1,1.0,-0.2
3,3,2,16,0.2,0.365548,1,-1.0,0.1,1.0,1.6
3,3,2,17,0.8,0.317837,0,1.0,0.1,-1.0,0.2
3,3,2,18,-0.2,0.39056,0,-1.0,1.1,1.0,0.8
3,3,2,19,-0.8,0.356979,1,1.0,0.1,-1.0,-0.2
3,3,2,20,0.2,0.357832,1,-1.0,0.1,1.0,-0.8
3,3,2,21,0.8,0.350167,0,1.0,0.1,-1.0,0.2
3,3,2,22,0.2,0.333573,0,1.0,0.1,1.0,0.8
3,3,2,23,-0.2,0.350101,0,-1.0,0.1,1.0,0.2
3,3,2,24,0.2,0.318512,0,1.0,0.1,-1.0,-0.2
3,3,2,25,-0.8,0.424327,1,1.0,0.1,1.0,0.2
3,3,2,26,0.2,0.340838,0,1.0,1.1,1.0,-0.8
3,3,2,27,-0.8,0.413725,1,1.0,0.1,1.0,0.2
3,3,2,28,0.2,0.252064,0,1.0,0.1,1.0,-0.8
3,3,2,29,-1.6,0.319667,0,-1.0,1.1,1.0,0.2
3,3,2,30,0.2,0.329973,0,1.0,0.1,-1.0,-1.6
3,3,2,31,0.8,0.338532,0,1.0,0.1,1.0,0.2
3,3,2,32,0.2,0.427882,1,-1.0,0.1,1.0,0.8
3,3,2,33,0.2,0.337001,0,1.0,0.1,-1.0,0.2
3,3,2,34,-0.2,0.313458,0,-1.0,0.1,1.0,0.2
3,3,2,35,-0.8,0.411378,0,-1.0,0.1,-1.0,-0.2
3,3,2,36,1.6,0.369848,0,1.0,1.1,-1.0,-0.8
3,3,2,37,1.6,0.377845,0,1.0,1.1,1.0,1.6
3,3,2,38,0.8,0.264832,0,1.0,0.1,1.0,1.6
3,3,2,39,0.8,0.348284,0,1.0,0.1,1.0,0.8
3,3,2,40,0.2,0.365062,0,1.0,0.1,1.0,0.8
3,3,2,41,-1.6,0.357231,0,-1.0,0.1,1.0,0.2
3,3,2,42,0.2,0.44455,0,1.0,1.1,-1.0,-1.6
3,3,2,43,0.8,0.361227,0,1.0,0.1,1.0,0.2
3,3,2,44,-0.8,0.266302,0,-1.0,0.1,1.0,0.8
3,3,2,45,0.8,0.269679,0,1.0,0.1,-1.0,-0.8
3,3,2,46,-0.8,0.232082,0,-1.0,0.1,1.0,0.8
3,3,2,47,0.2,0.300688,0,1.0,0.1,-1.0,-0.8
3,3,2,48,-0.2,0.551398,0,-1.0,0.1,1.0,0.2
3,3,2,49,-0.2,0.366776,0,-1.0,0.1,-1.0,-0.2
3,3,2,50,1.6,0.478658,0,1.0,0.1,-1.0,-0.2
3,3,2,51,-1.6,0.329644,0,-1.0,1.1,1.0,1.6
3,3,2,52,0.8,0.36408,0,1.0,0.1,-1.0,-1.6
3,3,2,54,0.2,0.327212,0,1.0,1.1,0.0,-0.2
3,3,2,55,-0.2,0.456683,0,-1.0,1.1,1.0,0.2
3,3,2,56,1.6,0.389468,0,1.0,0.1,-1.0,-0.2
3,3,2,57,1.6,0.364348,0,1.0,0.1,1.0,1.6
3,3,2,58,0.2,0.44449,1,-1.0,0.1,1.0,1.6
3,3,2,59,-1.6,0.384097,1,1.0,1.1,-1.0,0.2
3,3,2,60,0.2,0.335067,0,1.0,1.1,1.0,-1.6
3,3,2,61,0.8,0.392579,0,1.0,0.1,1.0,0.2
3,3,2,62,0.2,0.358874,0,1.0,0.1,1.0,0.8
3,3,2,63,-0.8,0.422505,0,-1.0,0.1,1.0,0.2
3,3,2,64,-0.2,0.419852,0,-1.0,0.1,-1.0,-0.8
3,3,2,65,-1.6,0.402209,1,1.0,0.1,-1.0,-0.2
3,3,2,66,-0.2,0.375413,0,-1.0,0.1,1.0,-1.6
3,3,2,67,-0.8,0.350768,0,-1.0,1.1,-1.0,-0.2
3,3,2,68,-0.8,0.431567,1,1.0,0.1,-1.0,-0.8
3,3,2,69,-0.2,0.371547,0,-1.0,1.1,1.0,-0.8
3,3,2,70,-1.6,0.39547,1,1.0,0.1,-1.0,-0.2
3,3,2,71,-1.6,0.49766,0,-1.0,0.1,1.0,-1.6
3,3,2,72,0.8,0.421258,0,1.0,0.1,-1.0,-1.6
3,3,2,73,-1.6,0.37841,1,1.0,0.1,1.0,0.8
3,3,2,74,-0.2,0.553216,1,1.0,0.1,1.0,-1.6
3,3,2,75,0.8,0.409134,0,1.0,0.1,1.0,-0.2
3,3,2,76,-0.2,0.479608,1,1.0,0.1,1.0,0.8
3,3,2,77,1.6,0.410669,0,1.0,1.1,1.0,-0.2
3,3,2,78,0.2,0.424795,0,1.0,0.1,1.0,1.6
3,3,2,79,-0.2,0.454934,0,-1.0,0.1,1.0,0.2
3,3,2,80,-0.2,0.411075,0,-1.0,0.1,-1.0,-0.2
3,3,2,81,-1.6,0.456911,1,1.0,0.1,-1.0,-0.2
3,3,2,82,0.8,0.340234,0,1.0,0.1,1.0,-1.6
3,3,2,83,0.8,0.31699,0,1.0,0.1,1.0,0.8
3,3,2,84,0.8,0.422298,0,1.0,0.1,1.0,0.8
3,3,2,85,0.2,0.372691,0,1.0,0.1,1.0,0.8
3,3,2,86,-0.8,0.42709,1,1.0,0.1,1.0,0.2
3,3,2,87,-1.6,0.624361,1,1.0,0.1,1.0,-0.8
3,3,2,88,-0.2,0.397832,0,-1.0,1.1,1.0,-1.6
3,3,2,89,1.6,0.428733,0,1.0,0.1,-1.0,-0.2
3,3,2,90,0.8,0.378211,0,1.0,0.1,1.0,1.6
3,3,2,91,-0.2,0.289551,0,-1.0,0.1,1.0,0.8
3,3,2,92,-0.8,0.428146,1,1.0,0.1,-1.0,-0.2
3,3,2,93,-0.8,0.537582,0,-1.0,0.1,1.0,-0.8
3,3,2,94,-1.6,0.378763,0,-1.0,0.1,-1.0,-0.8
3,3,2,95,-0.2,0.386193,0,-1.0,0.1,-1.0,-1.6
3,3,2,96,-0.8,0.377088,1,1.0,1.1,-1.0,-0.2
3,3,2,97,-0.8,0.399071,1,1.0,0.1,1.0,-0.8
3,3,2,99,-0.2,0.542735,0,-1.0,0.1,0.0,-0.8
3,3,2,100,0.8,0.656167,0,1.0,0.1,-1.0,-0.2
3,3,2,101,-0.2,0.404242,0,-1.0,0.1,1.0,0.8
3,3,2,102,-0.8,0.401392,1,1.0,0.1,-1.0,-0.2
3,3,2,103,-1.6,0.351544,0,-1.0,1.1,1.0,-0.8
3,3,2,104,1.6,0.416074,0,1.0,1.1,-1.0,-1.6
3,3,2,105,-0.2,0.380863,1,1.0,0.1,1.0,1.6
3,3,2,106,-0.8,0.388417,1,1.0,0.1,1.0,-0.2
3,3,2,107,1.6,0.475141,0,1.0,0.1,1.0,-0.8
3,3,2,108,0.8,0.438522,0,1.0,0.1,1.0,1.6
3,3,2,109,0.8,0.43623,0,1.0,0.1,1.0,0.8
3,3,2,110,0.2,0.391957,0,1.0,0.1,1.0,0.8
3,1,3,1,-0.2,0.350402,1,1.0,0.1,0.0,-100.0
3,1,3,2,0.8,0.318546,1,-1.0,1.1,1.0,-0.2
3,1,3,3,-0.2,0.367693,1,1.0,0.1,-1.0,0.8
3,1,3,4,-1.6,0.471165,1,1.0,0.1,1.0,-0.2
3,1,3,5,-0.2,0.4344,1,1.0,1.1,1.0,-1.6
3,1,3,6,0.2,0.455585,1,-1.0,0.1,1.0,-0.2
3,1,3,7,0.8,0.475537,0,1.0,0.1,-1.0,0.2
3,1,3,8,-0.2,0.390692,1,1.0,0.1,1.0,0.8
3,1,3,9,0.8,0.341363,0,1.0,0.1,1.0,-0.2
3,1,3,10,0.2,0.574064,1,-1.0,0.1,1.0,0.8
3,1,3,11,-1.6,0.389635,1,1.0,0.1,-1.0,0.2
3,1,3,12,-0.8,0.372544,0,-1.0,0.1,1.0,-1.6
