Name,Run,Session,Trial,AngleValue,Rt1,Resp1,Acc,PreviousTrialR,PreviousTrialCoh,Resp2,PreviousTrialConf
1,1,1,1,-0.2,0.455233,0,-1.0,0.0,-100.0,6,-100
1,1,1,2,-0.2,1.31333,1,1.0,-1.0,-0.2,6,6
1,1,1,3,-0.8,0.581749,1,1.0,1.0,-0.2,8,6
1,1,1,4,-0.8,0.57376,1,1.0,1.0,-0.8,8,8
1,1,1,5,-1.6,0.642411,1,1.0,1.0,-0.8,7,8
1,1,1,6,0.8,0.443148,0,1.0,1.0,-1.6,7,7
1,1,1,7,0.2,0.506833,0,1.0,1.0,0.8,7,7
1,1,1,8,1.6,0.433857,0,1.0,1.0,0.2,7,7
1,1,1,9,-0.8,0.400242,1,1.0,1.0,1.6,6,7
1,1,1,10,0.8,0.439799,0,1.0,1.0,-0.8,8,6
1,1,1,11,0.8,0.458477,0,1.0,1.0,0.8,8,8
1,1,1,12,0.2,0.691861,1,-1.0,1.0,0.8,5,8
1,1,1,13,-0.2,0.452695,1,1.0,-1.0,0.2,7,5
1,1,1,14,-0.8,0.495399,1,1.0,1.0,-0.2,7,7
1,1,1,15,0.8,0.457626,0,1.0,1.0,-0.8,8,7
1,1,1,16,-0.8,0.501004,1,1.0,1.0,0.8,7,8
1,1,1,17,-1.6,0.448602,1,1.0,1.0,-0.8,7,7
1,1,1,18,0.8,0.445321,0,1.0,1.0,-1.6,8,7
1,1,1,19,0.2,0.476674,1,-1.0,1.0,0.8,0,8
1,1,1,20,0.2,0.551504,0,1.0,-1.0,0.2,7,0
1,1,1,21,0.2,0.532365,0,1.0,1.0,0.2,7,7
1,1,1,22,-0.2,0.554438,1,1.0,1.0,0.2,6,7
1,1,1,23,-0.2,0.804683,1,1.0,1.0,-0.2,4,6
1,1,1,24,0.8,0.456812,0,1.0,1.0,-0.2,8,4
1,1,1,25,-0.8,0.616837,0,-1.0,1.0,0.8,4,8
1,1,1,26,0.8,0.566376,0,1.0,-1.0,-0.8,5,4
1,1,1,27,0.8,0.463746,0,1.0,1.0,0.8,7,5
1,1,1,28,0.8,0.498605,0,1.0,1.0,0.8,7,7
1,1,1,30,0.2,0.600314,1,-1.0,0.0,-0.2,5,1
1,1,1,31,1.6,0.501016,0,1.0,-1.0,0.2,7,5
1,1,1,32,-0.2,0.664539,0,-1.0,1.0,1.6,1,7
1,1,1,33,-1.6,0.424719,1,1.0,-1.0,-0.2,8,1
1,1,1,34,0.8,0.40224,0,1.0,1.0,-1.6,8,8
1,1,1,35,0.2,0.872985,0,1.0,1.0,0.8,6,8
1,1,1,36,-0.2,0.616484,0,-1.0,1.0,0.2,2,6
1,1,1,37,1.6,0.378111,0,1.0,-1.0,-0.2,8,2
1,1,1,38,-0.8,0.458098,0,-1.0,1.0,1.6,0,8
1,1,1,40,0.2,0.53326,0,1.0,0.0,0.2,7,0
1,1,1,41,-0.2,0.5486,0,-1.0,1.0,0.2,3,7
1,1,1,42,-0.8,0.696948,1,1.0,-1.0,-0.2,6,3
1,1,1,43,-1.6,0.511568,1,1.0,1.0,-0.8,6,6
1,1,1,44,-0.2,0.685689,1,1.0,1.0,-1.6,6,6
1,1,1,45,-0.8,0.514978,1,1.0,1.0,-0.2,5,6
1,1,1,46,0.2,0.452498,0,1.0,1.0,-0.8,7,5
1,1,1,47,-0.2,0.751962,1,1.0,1.0,0.2,3,7
1,1,1,48,0.8,0.552883,0,1.0,1.0,-0.2,6,3
1,1,1,49,0.2,0.537038,0,1.0,1.0,0.8,6,6
1,1,1,50,-0.2,0.35387,0,-1.0,1.0,0.2,2,6
1,1,1,51,-0.8,0.515091,1,1.0,-1.0,-0.2,6,2
1,1,1,52,1.6,0.453451,0,1.0,1.0,-0.8,7,6
1,1,1,53,-0.8,0.654795,0,-1.0,1.0,1.6,6,7
1,1,1,54,1.6,0.385014,0,1.0,-1.0,-0.8,7,6
1,1,1,55,-0.8,0.522866,1,1.0,1.0,1.6,6,7
1,1,1,56,-0.2,0.491672,0,-1.0,1.0,-0.8,6,6
1,1,1,57,-1.6,0.442692,1,1.0,-1.0,-0.2,6,6
1,1,1,58,0.2,0.610169,1,-1.0,1.0,-1.6,3,6
1,1,1,59,-0.8,0.456804,1,1.0,-1.0,0.2,7,3
1,1,1,60,-1.6,0.484862,1,1.0,1.0,-0.8,7,7
1,1,1,61,0.2,0.52708,0,1.0,1.0,-1.6,7,7
1,1,1,62,-0.2,0.475182,0,-1.0,1.0,0.2,7,7
1,1,1,63,0.2,0.720054,0,1.0,-1.0,-0.2,7,7
1,1,1,64,-0.2,0.589408,0,-1.0,1.0,0.2,7,7
1,1,1,65,0.2,0.497001,0,1.0,-1.0,-0.2,6,7
1,1,1,66,-1.6,0.49037,1,1.0,1.0,0.2,8,6
1,1,1,67,0.8,0.471765,0,1.0,1.0,-1.6,8,8
1,1,1,68,0.8,0.437232,0,1.0,1.0,0.8,8,8
1,1,1,69,0.2,0.469337,0,1.0,1.0,0.8,8,8
1,1,1,70,0.8,0.491311,0,1.0,1.0,0.2,8,8
1,1,1,71,-0.2,0.662789,0,-1.0,1.0,0.8,6,8
1,1,1,72,0.2,0.45747,0,1.0,-1.0,-0.2,7,6
1,1,1,73,0.2,0.430308,0,1.0,1.0,0.2,7,7
1,1,1,74,-0.2,0.471123,1,1.0,1.0,0.2,4,7
1,1,1,75,-0.8,0.46937,1,1.0,1.0,-0.2,6,4
1,1,1,76,-0.8,0.416762,1,1.0,1.0,-0.8,6,6
1,1,1,77,-0.2,0.626292,1,1.0,1.0,-0.8,6,6
1,1,1,78,-0.8,0.54634,1,1.0,1.0,-0.2,6,6
1,1,1,79,0.8,0.427222,0,1.0,1.0,-0.8,7,6
1,1,1,80,1.6,0.447012,0,1.0,1.0,0.8,7,7
1,1,1,81,-1.6,0.423479,1,1.0,1.0,1.6,6,7
1,1,1,82,-0.2,0.485597,1,1.0,1.0,-1.6,7,6
1,1,1,83,-1.6,0.404366,1,1.0,1.0,-0.2,5,7
1,1,1,84,0.8,0.54117,0,1.0,1.0,-1.6,7,5
1,1,1,85,1.6,0.495303,0,1.0,1.0,0.8,7,7
1,1,1,86,-1.6,0.425376,1,1.0,1.0,1.6,6,7
1,1,1,87,1.6,0.484472,0,1.0,1.0,-1.6,7,6
1,1,1,88,-1.6,0.478794,1,1.0,1.0,1.6,7,7
1,1,1,89,0.2,0.631855,0,1.0,1.0,-1.6,6,7
1,1,1,90,0.8,0.423199,0,1.0,1.0,0.2,6,6
1,1,1,91,-0.2,0.573935,0,-1.0,1.0,0.8,6,6
1,1,1,92,0.8,0.444856,0,1.0,-1.0,-0.2,6,6
1,1,1,93,0.8,0.438067,0,1.0,1.0,0.8,6,6
1,1,1,94,0.2,0.561606,0,1.0,1.0,0.8,6,6
1,1,1,95,-0.8,0.639711,0,-1.0,1.0,0.2,2,6
1,1,1,96,-0.8,0.541019,1,1.0,-1.0,-0.8,6,2
1,1,1,97,-0.8,0.607944,0,-1.0,1.0,-0.8,6,6
1,1,1,98,-1.6,0.537312,1,1.0,-1.0,-0.8,7,6
1,1,1,99,-0.8,0.641365,1,1.0,1.0,-1.6,8,7
1,1,1,100,0.2,0.440845,0,1.0,1.0,-0.8,8,8
1,1,1,101,1.6,0.412253,0,1.0,1.0,0.2,8,8
1,1,1,102,-0.2,0.526273,1,1.0,1.0,1.6,8,8
1,1,1,103,-0.2,0.557217,0,-1.0,1.0,-0.2,8,8
1,1,1,104,1.6,0.444025,0,1.0,-1.0,-0.2,8,8
1,1,1,105,1.6,0.418056,0,1.0,1.0,1.6,8,8
1,1,1,106,0.2,0.89012,1,-1.0,1.0,1.6,2,8
1,1,1,107,1.6,0.389621,0,1.0,-1.0,0.2,8,2
1,1,1,108,0.8,0.550478,0,1.0,1.0,1.6,7,8
1,1,1,109,-0.2,0.56203,0,-1.0,1.0,0.8,7,7
1,1,1,110,0.2,0.63331,0,1.0,-1.0,-0.2,7,7
1,2,1,1,-1.6,0.786998,1,1.0,0.0,-100.0,4,-100
1,2,1,2,-0.2,0.722609,1,1.0,1.0,-1.6,5,4
1,2,1,3,-0.8,0.472217,1,1.0,1.0,-0.2,6,5
1,2,1,4,-0.2,0.654721,1,1.0,1.0,-0.8,3,6
1,2,1,5,1.6,0.460896,0,1.0,1.0,-0.2,7,3
1,2,1,6,-0.2,0.563166,0,-1.0,1.0,1.6,6,7
1,2,1,7,-0.8,0.479915,1,1.0,-1.0,-0.2,7,6
1,2,1,8,0.2,0.495225,0,1.0,1.0,-0.8,7,7
1,2,1,9,0.8,0.544843,0,1.0,1.0,0.2,7,7
1,2,1,10,-0.8,0.560208,1,1.0,1.0,0.8,7,7
1,2,1,11,-1.6,0.469551,1,1.0,1.0,-0.8,6,7
1,2,1,12,-0.8,0.494429,1,1.0,1.0,-1.6,7,6
1,2,1,13,-1.6,0.440627,1,1.0,1.0,-0.8,7,7
1,2,1,14,0.8,0.464841,0,1.0,1.0,-1.6,7,7
1,2,1,15,-0.2,0.46678,0,-1.0,1.0,0.8,6,7
1,2,1,16,0.2,0.490853,0,1.0,-1.0,-0.2,7,6
1,2,1,17,0.8,0.445648,0,1.0,1.0,0.2,7,7
1,2,1,18,0.2,0.45569,0,1.0,1.0,0.8,6,7
1,2,1,19,0.2,0.423063,0,1.0,1.0,0.2,7,6
1,2,1,20,0.8,0.415816,0,1.0,1.0,0.2,6,7
1,2,1,21,0.2,0.590058,0,1.0,1.0,0.8,7,6
1,2,1,22,0.8,0.427957,0,1.0,1.0,0.2,7,7
1,2,1,23,-0.2,0.410907,0,-1.0,1.0,0.8,6,7
1,2,1,24,-0.8,0.510974,1,1.0,-1.0,-0.2,6,6
1,2,1,25,-1.6,0.461877,1,1.0,1.0,-0.8,7,6
1,2,1,26,0.8,0.511208,0,1.0,1.0,-1.6,6,7
1,2,1,27,-0.8,0.443966,1,1.0,1.0,0.8,7,6
1,2,1,28,0.2,0.437392,0,1.0,1.0,-0.8,6,7
1,2,1,29,0.2,0.492138,0,1.0,1.0,0.2,7,6
1,2,1,30,0.2,0.477544,0,1.0,1.0,0.2,7,7
1,2,1,31,0.8,0.512218,0,1.0,1.0,0.2,7,7
1,2,1,32,-0.2,0.497148,0,-1.0,1.0,0.8,7,7
1,2,1,33,-0.2,0.559292,0,-1.0,-1.0,-0.2,7,7
1,2,1,34,-0.2,0.549101,1,1.0,-1.0,-0.2,7,7
1,2,1,35,1.6,0.420141,0,1.0,1.0,-0.2,7,7
1,2,1,36,-0.2,0.572523,1,1.0,1.0,1.6,7,7
1,2,1,37,-1.6,0.630809,1,1.0,1.0,-0.2,6,7
1,2,1,38,-0.8,0.431031,1,1.0,1.0,-1.6,6,6
1,2,1,39,0.8,0.419031,0,1.0,1.0,-0.8,6,6
1,2,1,40,0.8,0.469844,0,1.0,1.0,0.8,7,6
1,2,1,41,1.6,0.415938,0,1.0,1.0,0.8,7,7
1,2,1,42,-0.8,0.442859,1,1.0,1.0,1.6,6,7
1,2,1,43,0.8,0.410838,0,1.0,1.0,-0.8,6,6
1,2,1,44,0.2,0.406831,0,1.0,1.0,0.8,7,6
1,2,1,45,-0.2,0.553634,0,-1.0,1.0,0.2,7,7
1,2,1,46,-0.2,0.471753,0,-1.0,-1.0,-0.2,7,7
1,2,1,47,-0.2,0.438687,0,-1.0,-1.0,-0.2,7,7
1,2,1,48,0.2,0.420109,0,1.0,-1.0,-0.2,7,7
1,2,1,49,0.8,0.424006,0,1.0,1.0,0.2,7,7
1,2,1,50,-0.8,0.622637,1,1.0,1.0,0.8,6,7
1,2,1,51,-1.6,0.608881,1,1.0,1.0,-0.8,6,6
1,2,1,52,0.8,0.528303,0,1.0,1.0,-1.6,6,6
1,2,1,53,-0.2,0.566492,1,1.0,1.0,0.8,5,6
1,2,1,54,0.8,0.477251,0,1.0,1.0,-0.2,6,5
1,2,1,55,-0.8,0.573315,1,1.0,1.0,0.8,6,6
1,2,1,56,-1.6,0.454183,1,1.0,1.0,-0.8,6,6
1,2,1,57,1.6,0.418786,0,1.0,1.0,-1.6,7,6
1,2,1,58,0.8,0.557004,0,1.0,1.0,1.6,7,7
1,2,1,59,1.6,0.429178,0,1.0,1.0,0.8,7,7
1,2,1,60,0.8,0.471918,0,1.0,1.0,1.6,7,7
1,2,1,61,-1.6,0.473873,1,1.0,1.0,0.8,5,7
1,2,1,62,0.2,0.789454,0,1.0,1.0,-1.6,6,5
1,2,1,63,1.6,0.422072,0,1.0,1.0,0.2,7,6
1,2,1,64,-0.2,0.528206,0,-1.0,1.0,1.6,5,7
1,2,1,65,0.8,0.419524,0,1.0,-1.0,-0.2,7,5
1,2,1,66,-1.6,0.507716,1,1.0,1.0,0.8,4,7
1,2,1,67,1.6,0.424574,0,1.0,1.0,-1.6,7,4
1,2,1,68,1.6,0.433392,0,1.0,1.0,1.6,7,7
1,2,1,69,0.2,0.464721,0,1.0,1.0,1.6,6,7
1,2,1,70,-0.2,0.669944,1,1.0,1.0,0.2,4,6
1,2,1,71,-0.8,0.490887,1,1.0,1.0,-0.2,6,4
1,2,1,72,0.8,0.485713,0,1.0,1.0,-0.8,6,6
1,2,1,73,-1.6,0.449115,1,1.0,1.0,0.8,6,6
1,2,1,74,-0.2,0.900686,1,1.0,1.0,-1.6,7,6
1,2,1,75,1.6,0.449426,0,1.0,1.0,-0.2,6,7
1,2,1,76,0.2,0.442225,0,1.0,1.0,1.6,6,6
1,2,1,77,-0.2,0.496258,0,-1.0,1.0,0.2,7,6
1,2,1,78,-0.2,0.543328,0,-1.0,-1.0,-0.2,7,7
1,2,1,79,-0.8,0.726577,0,-1.0,-1.0,-0.2,7,7
1,2,1,80,1.6,0.453969,0,1.0,-1.0,-0.8,7,7
1,2,1,81,1.6,0.441532,0,1.0,1.0,1.6,7,7
1,2,1,82,0.2,0.548701,0,1.0,1.0,1.6,7,7
1,2,1,83,1.6,0.437541,0,1.0,1.0,0.2,7,7
1,2,1,85,-0.2,0.717785,0,-1.0,0.0,-0.2,7,5
1,2,1,86,-0.8,0.797259,0,-1.0,-1.0,-0.2,7,7
1,2,1,87,-0.8,0.724594,0,-1.0,-1.0,-0.8,6,7
1,2,1,88,0.8,0.524798,0,1.0,-1.0,-0.8,7,6
1,2,1,89,0.8,0.482211,0,1.0,1.0,0.8,7,7
1,2,1,90,0.2,0.860306,0,1.0,1.0,0.8,7,7
1,2,1,91,0.8,0.514465,0,1.0,1.0,0.2,7,7
1,2,1,92,0.2,0.543305,0,1.0,1.0,0.8,6,7
1,2,1,93,0.2,0.45339,0,1.0,1.0,0.2,6,6
1,2,1,94,-0.8,0.595908,1,1.0,1.0,0.2,4,6
1,2,1,95,0.2,0.772116,0,1.0,1.0,-0.8,7,4
1,2,1,96,-0.8,0.550261,1,1.0,1.0,0.2,6,7
1,2,1,97,-1.6,0.537079,1,1.0,1.0,-0.8,7,6
1,2,1,98,0.2,0.553874,0,1.0,1.0,-1.6,7,7
1,2,1,99,0.2,0.887245,1,-1.0,1.0,0.2,5,7
1,2,1,100,-0.8,0.497224,1,1.0,-1.0,0.2,6,5
1,2,1,101,-0.2,0.881413,0,-1.0,1.0,-0.8,6,6
1,2,1,102,0.2,0.900688,1,-1.0,-1.0,-0.2,5,6
1,2,1,103,0.2,0.821713,0,1.0,-1.0,0.2,6,5
1,2,1,104,-0.8,0.53051,1,1.0,1.0,0.2,6,6
1,2,1,105,-0.8,0.497674,1,1.0,1.0,-0.8,6,6
1,2,1,106,-1.6,0.46453,1,1.0,1.0,-0.8,5,6
1,2,1,107,-0.2,0.966579,1,1.0,1.0,-1.6,3,5
1,2,1,108,-0.2,0.585663,0,-1.0,1.0,-0.2,6,3
1,2,1,109,-0.8,0.516958,1,1.0,-1.0,-0.2,7,6
1,2,1,110,0.2,0.544698,0,1.0,1.0,-0.8,6,7
1,2,2,1,-0.8,0.798506,0,-1.0,0.0,-100.0,3,-100
1,2,2,3,0.2,0.50832,0,1.0,0.0,0.8,7,5
1,2,2,4,-0.2,0.646058,0,-1.0,1.0,0.2,4,7
1,2,2,5,-0.8,0.589574,1,1.0,-1.0,-0.2,4,4
1,2,2,6,1.6,0.393293,0,1.0,1.0,-0.8,6,4
1,2,2,7,-0.2,0.540022,0,-1.0,1.0,1.6,6,6
1,2,2,8,0.8,0.42213,0,1.0,-1.0,-0.2,6,6
1,2,2,9,0.2,0.567321,0,1.0,1.0,0.8,5,6
1,2,2,10,-0.2,0.527451,0,-1.0,1.0,0.2,6,5
1,2,2,11,0.8,0.478318,0,1.0,-1.0,-0.2,5,6
1,2,2,12,0.8,0.439174,0,1.0,1.0,0.8,6,5
1,2,2,13,-0.2,0.479198,0,-1.0,1.0,0.8,6,6
1,2,2,14,0.8,0.518593,0,1.0,-1.0,-0.2,6,6
1,2,2,15,0.8,0.45621,0,1.0,1.0,0.8,6,6
1,2,2,16,-0.2,0.634024,0,-1.0,1.0,0.8,6,6
1,2,2,17,-0.2,0.577578,0,-1.0,-1.0,-0.2,6,6
1,2,2,18,0.2,0.564391,0,1.0,-1.0,-0.2,6,6
1,2,2,19,1.6,0.444998,0,1.0,1.0,0.2,6,6
1,2,2,20,0.2,0.479943,0,1.0,1.0,1.6,6,6
1,2,2,21,-0.2,0.579294,0,-1.0,1.0,0.2,6,6
1,2,2,22,0.8,0.461948,0,1.0,-1.0,-0.2,6,6
1,2,2,23,1.6,0.440128,0,1.0,1.0,0.8,6,6
1,2,2,24,0.2,0.478939,0,1.0,1.0,1.6,6,6
1,2,2,25,0.2,0.488112,0,1.0,1.0,0.2,6,6
1,2,2,26,-0.8,0.869706,0,-1.0,1.0,0.2,6,6
1,2,2,27,-1.6,0.621907,1,1.0,-1.0,-0.8,4,6
1,2,2,28,-0.8,0.564787,1,1.0,1.0,-1.6,6,4
1,2,2,29,-1.6,0.464819,0,-1.0,1.0,-0.8,7,6
1,2,2,31,-1.6,0.533546,1,1.0,0.0,-0.2,6,3
1,2,2,32,1.6,0.449857,0,1.0,1.0,-1.6,7,6
1,2,2,33,0.2,0.659311,1,-1.0,1.0,1.6,4,7
1,2,2,34,-1.6,0.56608,1,1.0,-1.0,0.2,6,4
1,2,2,35,-1.6,0.551477,0,-1.0,1.0,-1.6,6,6
1,2,2,36,-0.8,0.441621,0,-1.0,-1.0,-1.6,6,6
1,2,2,37,-0.2,0.500951,0,-1.0,-1.0,-0.8,6,6
1,2,2,38,-0.8,0.743552,0,-1.0,-1.0,-0.2,6,6
1,2,2,39,-1.6,0.670536,1,1.0,-1.0,-0.8,3,6
1,2,2,40,0.2,0.480086,0,1.0,1.0,-1.6,6,3
1,2,2,41,-0.2,0.426025,0,-1.0,1.0,0.2,7,6
1,2,2,42,0.8,0.498151,0,1.0,-1.0,-0.2,6,7
1,2,2,43,-0.2,0.49902,0,-1.0,1.0,0.8,7,6
1,2,2,44,-0.2,0.405169,0,-1.0,-1.0,-0.2,7,7
1,2,2,45,-1.6,0.543106,1,1.0,-1.0,-0.2,5,7
1,2,2,46,-1.6,0.511826,1,1.0,1.0,-1.6,6,5
1,2,2,47,-1.6,0.480028,1,1.0,1.0,-1.6,7,6
1,2,2,48,0.2,0.568777,0,1.0,1.0,-1.6,7,7
1,2,2,49,-0.8,0.669651,0,-1.0,1.0,0.2,3,7
1,2,2,50,0.8,0.469959,0,1.0,-1.0,-0.8,7,3
1,2,2,51,0.8,0.469298,0,1.0,1.0,0.8,7,7
1,2,2,52,1.6,0.462744,0,1.0,1.0,0.8,7,7
1,2,2,53,0.2,0.501526,0,1.0,1.0,1.6,7,7
1,2,2,54,-0.8,0.69623,1,1.0,1.0,0.2,4,7
1,2,2,55,-0.8,0.701424,1,1.0,1.0,-0.8,5,4
1,2,2,56,0.2,0.460425,0,1.0,1.0,-0.8,7,5
1,2,2,57,0.8,0.4559,0,1.0,1.0,0.2,7,7
1,2,2,58,-0.2,0.480802,0,-1.0,1.0,0.8,7,7
1,2,2,59,-0.2,0.424839,0,-1.0,-1.0,-0.2,7,7
1,2,2,60,0.2,0.47757,0,1.0,-1.0,-0.2,7,7
1,2,2,61,1.6,0.421622,0,1.0,1.0,0.2,7,7
1,2,2,62,-0.8,0.832244,0,-1.0,1.0,1.6,7,7
1,2,2,63,0.2,0.504542,0,1.0,-1.0,-0.8,6,7
1,2,2,64,0.2,0.542185,0,1.0,1.0,0.2,7,6
1,2,2,65,-0.2,0.662589,1,1.0,1.0,0.2,4,7
1,2,2,66,0.8,0.425392,0,1.0,1.0,-0.2,7,4
1,2,2,67,-0.2,0.820273,1,1.0,1.0,0.8,4,7
1,2,2,68,-0.8,0.533594,1,1.0,1.0,-0.2,6,4
1,2,2,69,0.2,0.457098,0,1.0,1.0,-0.8,7,6
1,2,2,70,0.2,0.89135,0,1.0,1.0,0.2,4,7
1,2,2,71,-0.2,0.635934,0,-1.0,1.0,0.2,2,4
1,2,2,72,0.8,0.402031,0,1.0,-1.0,-0.2,7,2
1,2,2,73,1.6,0.399073,0,1.0,1.0,0.8,7,7
1,2,2,74,1.6,0.429495,0,1.0,1.0,1.6,8,7
1,2,2,75,-0.8,0.559645,1,1.0,1.0,1.6,4,8
1,2,2,76,-0.8,0.473117,1,1.0,1.0,-0.8,6,4
1,2,2,77,-1.6,0.732605,1,1.0,1.0,-0.8,3,6
1,2,2,78,0.2,0.532667,0,1.0,1.0,-1.6,7,3
1,2,2,79,-0.8,0.568075,1,1.0,1.0,0.2,2,7
1,2,2,80,-0.2,0.915576,1,1.0,1.0,-0.8,6,2
1,2,2,81,0.8,0.553082,0,1.0,1.0,-0.2,8,6
1,2,2,82,0.2,0.45916,0,1.0,1.0,0.8,8,8
1,2,2,83,-0.2,0.719995,0,-1.0,1.0,0.2,7,8
1,2,2,84,-0.8,0.958012,0,-1.0,-1.0,-0.2,3,7
1,2,2,85,-0.2,0.469414,0,-1.0,-1.0,-0.8,3,3
1,2,2,86,1.6,0.468261,0,1.0,-1.0,-0.2,7,3
1,2,2,87,-0.8,0.953661,1,1.0,1.0,1.6,3,7
1,2,2,88,-0.2,0.709947,1,1.0,1.0,-0.8,7,3
1,2,2,89,0.8,0.46251,0,1.0,1.0,-0.2,7,7
1,2,2,90,-1.6,0.54194,1,1.0,1.0,0.8,3,7
1,2,2,92,1.6,0.493014,0,1.0,0.0,0.2,7,3
1,2,2,93,-0.8,0.973575,1,1.0,1.0,1.6,3,7
1,2,2,94,-0.8,1.005765,1,1.0,1.0,-0.8,5,3
1,2,2,95,0.2,0.517978,0,1.0,1.0,-0.8,7,5
1,2,2,96,1.6,0.452941,0,1.0,1.0,0.2,7,7
1,2,2,97,0.2,0.533691,0,1.0,1.0,1.6,7,7
1,2,2,98,0.8,0.414952,0,1.0,1.0,0.2,8,7
1,2,2,99,-0.8,0.731471,0,-1.0,1.0,0.8,7,8
1,2,2,100,0.8,0.456038,0,1.0,-1.0,-0.8,8,7
1,2,2,101,-0.2,0.576592,0,-1.0,1.0,0.8,3,8
1,2,2,102,-0.2,0.508906,0,-1.0,-1.0,-0.2,7,3
1,2,2,103,-0.8,0.645531,0,-1.0,-1.0,-0.2,4,7
1,2,2,104,0.8,0.462071,0,1.0,-1.0,-0.8,8,4
1,2,2,105,0.2,0.633126,0,1.0,1.0,0.8,8,8
1,2,2,106,0.8,0.445999,0,1.0,1.0,0.2,8,8
1,2,2,107,0.8,0.440779,0,1.0,1.0,0.8,8,8
1,2,2,108,-1.6,0.568892,1,1.0,1.0,0.8,4,8
1,2,2,109,1.6,0.435035,0,1.0,1.0,-1.6,7,4
1,2,2,110,0.2,0.451088,0,1.0,1.0,1.6,4,7
1,3,2,1,0.2,0.735734,0,1.0,0.0,-100.0,6,-100
1,3,2,2,0.8,0.656018,0,1.0,1.0,0.2,6,6
1,3,2,3,0.8,0.538239,0,1.0,1.0,0.8,4,6
1,3,2,4,-0.2,0.643453,1,1.0,1.0,0.8,6,4
1,3,2,5,-0.8,0.466794,1,1.0,1.0,-0.2,6,6
1,3,2,6,-1.6,0.51173,1,1.0,1.0,-0.8,7,6
1,3,2,7,-0.2,0.53123,0,-1.0,1.0,-1.6,5,7
1,3,2,8,0.2,0.733233,0,1.0,-1.0,-0.2,3,5
1,3,2,9,-0.8,0.515958,0,-1.0,1.0,0.2,7,3
1,3,2,10,0.2,0.474998,0,1.0,-1.0,-0.8,7,7
1,3,2,11,-0.8,0.582794,1,1.0,1.0,0.2,3,7
1,3,2,12,-0.8,0.584995,1,1.0,1.0,-0.8,2,3
1,3,2,13,0.2,0.423346,0,1.0,1.0,-0.8,7,2
1,3,2,14,1.6,0.408443,0,1.0,1.0,0.2,8,7
1,3,2,15,0.8,0.527323,0,1.0,1.0,1.6,7,8
1,3,2,16,-0.8,0.520107,1,1.0,1.0,0.8,5,7
1,3,2,17,-0.2,0.435291,0,-1.0,1.0,-0.8,6,5
1,3,2,18,1.6,0.485992,0,1.0,-1.0,-0.2,7,6
1,3,2,19,-0.8,0.541851,0,-1.0,1.0,1.6,7,7
1,3,2,20,1.6,0.4223,0,1.0,-1.0,-0.8,5,7
1,3,2,21,0.2,0.452927,0,1.0,1.0,1.6,7,5
1,3,2,22,-0.8,0.593126,1,1.0,1.0,0.2,3,7
1,3,2,23,0.8,0.49171,0,1.0,1.0,-0.8,7,3
1,3,2,24,0.2,0.46716,0,1.0,1.0,0.8,7,7
1,3,2,25,0.2,0.491857,0,1.0,1.0,0.2,7,7
1,3,2,26,-0.8,0.610804,1,1.0,1.0,0.2,3,7
1,3,2,27,-1.6,0.479305,1,1.0,1.0,-0.8,4,3
1,3,2,28,-0.8,0.475117,1,1.0,1.0,-1.6,5,4
1,3,2,29,-0.2,0.464451,1,1.0,1.0,-0.8,7,5
1,3,2,30,0.2,0.535768,0,1.0,1.0,-0.2,4,7
1,3,2,31,1.6,0.445518,0,1.0,1.0,0.2,7,4
1,3,2,32,-0.8,0.632672,1,1.0,1.0,1.6,3,7
1,3,2,33,0.8,0.47483,0,1.0,1.0,-0.8,7,3
1,3,2,34,1.6,0.472914,0,1.0,1.0,0.8,7,7
1,3,2,35,-0.2,0.694928,1,1.0,1.0,1.6,4,7
1,3,2,36,-1.6,0.485061,1,1.0,1.0,-0.2,5,4
1,3,2,37,0.8,0.460747,0,1.0,1.0,-1.6,6,5
1,3,2,38,-0.2,0.89989,1,1.0,1.0,0.8,3,6
1,3,2,39,-1.6,0.564754,1,1.0,1.0,-0.2,7,3
1,3,2,40,0.8,0.498493,0,1.0,1.0,-1.6,6,7
1,3,2,41,0.2,0.649357,0,1.0,1.0,0.8,7,6
1,3,2,42,-1.6,0.511035,1,1.0,1.0,0.2,6,7
1,3,2,43,1.6,0.484574,0,1.0,1.0,-1.6,6,6
1,3,2,44,-1.6,0.498122,1,1.0,1.0,1.6,3,6
1,3,2,45,-1.6,0.526121,0,-1.0,1.0,-1.6,2,3
1,3,2,46,1.6,0.440835,0,1.0,-1.0,-1.6,3,2
1,3,2,47,0.2,0.72589,0,1.0,1.0,1.6,3,3
1,3,2,48,-0.2,0.847748,1,1.0,1.0,0.2,3,3
1,3,2,49,-0.2,0.809138,1,1.0,1.0,-0.2,2,3
1,3,2,50,0.8,0.526023,0,1.0,1.0,-0.2,2,2
1,3,2,51,-1.6,0.495626,1,1.0,1.0,0.8,3,2
1,3,2,52,0.8,0.466112,0,1.0,1.0,-1.6,2,3
1,3,2,53,0.2,0.543711,0,1.0,1.0,0.8,2,2
1,3,2,54,-0.2,0.487417,0,-1.0,1.0,0.2,2,2
1,3,2,55,0.2,0.443419,0,1.0,-1.0,-0.2,3,2
1,3,2,57,-0.8,0.72202,1,1.0,0.0,-0.2,6,3
1,3,2,58,-0.2,0.52774,0,-1.0,1.0,-0.8,6,6
1,3,2,59,1.6,0.459604,0,1.0,-1.0,-0.2,6,6
1,3,2,62,-0.8,0.823358,0,-1.0,0.0,-0.2,3,4
1,3,2,63,-1.6,0.527618,1,1.0,-1.0,-0.8,3,3
1,3,2,64,0.2,0.582667,0,1.0,1.0,-1.6,3,3
1,3,2,65,0.8,0.433547,0,1.0,1.0,0.2,5,3
1,3,2,66,1.6,0.531484,0,1.0,1.0,0.8,7,5
1,3,2,67,0.8,0.487513,0,1.0,1.0,1.6,8,7
1,3,2,68,-0.2,0.686281,0,-1.0,1.0,0.8,6,8
1,3,2,69,-0.8,0.512383,1,1.0,-1.0,-0.2,4,6
1,3,2,70,0.2,0.532856,0,1.0,1.0,-0.8,7,4
1,3,2,71,0.8,0.512677,0,1.0,1.0,0.2,5,7
1,3,2,72,1.6,0.454726,0,1.0,1.0,0.8,6,5
1,3,2,73,-1.6,0.658032,1,1.0,1.0,1.6,3,6
1,3,2,74,-0.2,0.656921,1,1.0,1.0,-1.6,3,3
1,3,2,75,-1.6,0.481971,1,1.0,1.0,-0.2,5,3
1,3,2,76,-0.8,0.601587,1,1.0,1.0,-1.6,5,5
1,3,2,77,1.6,0.44934,0,1.0,1.0,-0.8,7,5
1,3,2,78,-0.8,0.582558,1,1.0,1.0,1.6,6,7
1,3,2,79,-1.6,0.444311,1,1.0,1.0,-0.8,6,6
1,3,2,80,0.2,0.458325,0,1.0,1.0,-1.6,5,6
1,3,2,81,-0.8,0.58777,1,1.0,1.0,0.2,6,5
1,3,2,82,-0.2,0.458579,0,-1.0,1.0,-0.8,7,6
1,3,2,83,0.8,0.524901,0,1.0,-1.0,-0.2,6,7
1,3,2,84,0.8,0.445424,0,1.0,1.0,0.8,3,6
1,3,2,85,0.2,0.622278,0,1.0,1.0,0.8,6,3
1,3,2,86,-0.2,0.52181,0,-1.0,1.0,0.2,6,6
1,3,2,87,0.2,0.455294,0,1.0,-1.0,-0.2,6,6
1,3,2,88,-0.8,0.50841,1,1.0,1.0,0.2,3,6
1,3,2,89,0.2,0.45794,0,1.0,1.0,-0.8,6,3
1,3,2,90,0.2,0.564686,0,1.0,1.0,0.2,6,6
1,3,2,91,0.2,0.473563,0,1.0,1.0,0.2,5,6
1,3,2,92,-0.2,0.444785,0,-1.0,1.0,0.2,5,5
1,3,2,93,-0.2,0.605559,0,-1.0,-1.0,-0.2,4,5
1,3,2,94,-0.8,0.569375,1,1.0,-1.0,-0.2,3,4
1,3,2,95,0.8,0.508066,0,1.0,1.0,-0.8,6,3
1,3,2,96,-0.2,0.437497,0,-1.0,1.0,0.8,6,6
1,3,2,97,-0.2,0.374485,0,-1.0,-1.0,-0.2,6,6
1,3,2,98,0.8,0.433689,0,1.0,-1.0,-0.2,6,6
1,3,2,99,-0.8,0.547106,1,1.0,1.0,0.8,3,6
1,3,2,100,0.8,0.443598,0,1.0,1.0,-0.8,6,3
1,3,2,101,0.8,0.444189,0,1.0,1.0,0.8,6,6
1,3,2,102,0.8,0.456848,0,1.0,1.0,0.8,7,6
1,3,2,103,-0.2,0.517219,0,-1.0,1.0,0.8,6,7
1,3,2,104,-0.2,0.691139,0,-1.0,-1.0,-0.2,7,6
1,3,2,105,0.8,0.455418,0,1.0,-1.0,-0.2,7,7
1,3,2,106,-0.2,0.511314,0,-1.0,1.0,0.8,7,7
1,3,2,107,0.2,0.556723,0,1.0,-1.0,-0.2,7,7
1,3,2,108,0.2,0.47521,0,1.0,1.0,0.2,7,7
1,3,2,109,1.6,0.43411,0,1.0,1.0,0.2,6,7
1,3,2,110,0.2,0.541794,0,1.0,1.0,1.6,5,6
1,1,3,1,0.8,0.696322,0,1.0,0.0,-100.0,6,-100
1,1,3,2,0.2,0.589888,0,1.0,1.0,0.8,6,6
1,1,3,3,-1.6,0.418644,1,1.0,1.0,0.2,7,6
1,1,3,4,-0.2,0.432237,0,-1.0,1.0,-1.6,6,7
1,1,3,5,0.2,0.422828,0,1.0,-1.0,-0.2,7,6
1,1,3,6,1.6,0.400507,0,1.0,1.0,0.2,6,7
1,1,3,7,1.6,0.460571,0,1.0,1.0,1.6,8,6
1,1,3,8,-0.8,0.543899,1,1.0,1.0,1.6,5,8
1,1,3,9,1.6,0.430816,0,1.0,1.0,-0.8,7,5
1,1,3,10,1.6,0.505518,0,1.0,1.0,1.6,7,7
1,1,3,11,-0.2,0.76954,0,-1.0,1.0,1.6,4,7
1,1,3,13,-0.8,0.475249,1,1.0,0.0,0.8,5,4
1,1,3,14,-0.2,0.586775,0,-1.0,1.0,-0.8,3,5
1,1,3,15,0.8,0.424903,0,1.0,-1.0,-0.2,6,3
1,1,3,16,0.8,0.413003,0,1.0,1.0,0.8,6,6
1,1,3,17,1.6,0.469099,0,1.0,1.0,0.8,6,6
1,1,3,18,0.2,0.601749,0,1.0,1.0,1.6,6,6
1,1,3,19,-1.6,0.43726,1,1.0,1.0,0.2,4,6
1,1,3,20,0.8,0.508564,0,1.0,1.0,-1.6,6,4
1,1,3,21,1.6,0.484692,0,1.0,1.0,0.8,7,6
1,1,3,22,0.2,0.534055,0,1.0,1.0,1.6,7,7
1,1,3,23,0.8,0.486882,0,1.0,1.0,0.2,7,7
1,1,3,24,0.2,0.804333,1,-1.0,1.0,0.8,3,7
1,1,3,25,-0.2,0.578435,0,-1.0,-1.0,0.2,4,3
1,1,3,26,0.2,0.575985,1,-1.0,-1.0,-0.2,5,4
1,1,3,27,-0.8,0.587389,1,1.0,-1.0,0.2,6,5
1,1,3,28,0.2,0.537506,0,1.0,1.0,-0.8,7,6
1,1,3,29,-1.6,0.476374,1,1.0,1.0,0.2,6,7
1,1,3,30,-0.8,0.865625,1,1.0,1.0,-1.6,3,6
1,1,3,31,-1.6,0.466352,1,1.0,1.0,-0.8,3,3
1,1,3,32,-1.6,0.430776,1,1.0,1.0,-1.6,6,3
1,1,3,33,0.8,0.461889,0,1.0,1.0,-1.6,7,6
1,1,3,34,0.2,0.466182,0,1.0,1.0,0.8,7,7
1,1,3,35,-0.2,0.535432,1,1.0,1.0,0.2,3,7
1,1,3,36,1.6,0.43097,0,1.0,1.0,-0.2,6,3
1,1,3,37,-1.6,0.428948,1,1.0,1.0,1.6,4,6
1,1,3,38,-0.2,0.729175,0,-1.0,1.0,-1.6,6,4
1,1,3,39,-0.2,0.652607,0,-1.0,-1.0,-0.2,6,6
1,1,3,40,0.8,0.46665,0,1.0,-1.0,-0.2,6,6
1,1,3,41,0.8,0.578185,0,1.0,1.0,0.8,6,6
1,1,3,42,-0.8,0.474864,1,1.0,1.0,0.8,4,6
1,1,3,43,-0.2,0.573707,0,-1.0,1.0,-0.8,6,4
1,1,3,44,-0.2,1.095718,1,1.0,-1.0,-0.2,4,6
1,1,3,45,0.2,0.449944,0,1.0,1.0,-0.2,5,4
1,1,3,46,0.2,0.496623,0,1.0,1.0,0.2,7,5
1,1,3,47,0.8,0.437931,0,1.0,1.0,0.2,7,7
1,1,3,48,-0.8,0.640125,1,1.0,1.0,0.8,4,7
1,1,3,49,0.2,0.649505,0,1.0,1.0,-0.8,5,4
1,1,3,50,0.2,0.606839,1,-1.0,1.0,0.2,6,5
1,1,3,51,-0.8,0.555058,1,1.0,-1.0,0.2,6,6
1,1,3,52,-1.6,0.473858,1,1.0,1.0,-0.8,4,6
1,1,3,53,-0.2,0.490686,0,-1.0,1.0,-1.6,7,4
1,1,3,54,1.6,0.442134,0,1.0,-1.0,-0.2,8,7
1,1,3,55,-0.2,0.878039,1,1.0,1.0,1.6,4,8
1,1,3,56,0.2,0.519013,0,1.0,1.0,-0.2,7,4
1,1,3,57,-0.8,0.553154,1,1.0,1.0,0.2,4,7
1,1,3,58,0.8,0.509905,0,1.0,1.0,-0.8,7,4
1,1,3,59,-0.8,0.537223,1,1.0,1.0,0.8,4,7
1,1,3,60,-0.2,0.446739,0,-1.0,1.0,-0.8,8,4
1,1,3,61,0.2,0.496236,0,1.0,-1.0,-0.2,8,8
1,1,3,62,0.8,1.08573,0,1.0,1.0,0.2,7,8
1,1,3,63,1.6,0.599203,0,1.0,1.0,0.8,8,7
1,1,3,64,0.2,1.143868,1,-1.0,1.0,1.6,3,8
1,1,3,65,-0.8,0.598473,1,1.0,-1.0,0.2,4,3
1,1,3,66,-0.8,0.538049,1,1.0,1.0,-0.8,4,4
1,1,3,67,-0.8,0.51336,1,1.0,1.0,-0.8,4,4
1,1,3,68,0.8,0.485099,0,1.0,1.0,-0.8,7,4
1,1,3,69,-0.8,0.529765,1,1.0,1.0,0.8,7,7
1,1,3,70,0.8,0.443957,0,1.0,1.0,-0.8,7,7
1,1,3,71,-0.8,0.587205,1,1.0,1.0,0.8,6,7
1,1,3,72,1.6,0.452904,0,1.0,1.0,-0.8,7,6
1,1,3,73,-0.2,0.5224,1,1.0,1.0,1.6,4,7
1,1,3,74,-0.8,0.489629,1,1.0,1.0,-0.2,4,4
1,1,3,75,-0.8,0.712438,1,1.0,1.0,-0.8,6,4
1,1,3,76,0.2,0.480007,0,1.0,1.0,-0.8,5,6
1,1,3,77,-0.2,0.891903,1,1.0,1.0,0.2,4,5
1,1,3,78,-0.2,1.270149,0,-1.0,1.0,-0.2,6,4
1,1,3,79,0.8,0.541606,0,1.0,-1.0,-0.2,6,6
1,1,3,80,0.2,0.747949,0,1.0,1.0,0.8,6,6
1,1,3,81,0.2,0.500587,0,1.0,1.0,0.2,6,6
1,1,3,82,1.6,0.452769,0,1.0,1.0,0.2,6,6
1,1,3,83,-0.2,1.037486,0,-1.0,1.0,1.6,6,6
1,1,3,84,0.8,0.478703,0,1.0,-1.0,-0.2,6,6
1,1,3,85,0.8,0.473046,0,1.0,1.0,0.8,6,6
1,1,3,86,-0.2,1.294498,0,-1.0,1.0,0.8,7,6
1,1,3,87,0.2,0.497053,0,1.0,-1.0,-0.2,5,7
1,1,3,88,-1.6,0.499814,1,1.0,1.0,0.2,4,5
1,1,3,89,-1.6,0.591857,1,1.0,1.0,-1.6,4,4
1,1,3,90,-0.2,0.992189,1,1.0,1.0,-1.6,5,4
1,1,3,91,0.8,0.467064,0,1.0,1.0,-0.2,7,5
1,1,3,92,1.6,0.459676,0,1.0,1.0,0.8,7,7
1,1,3,93,-1.6,0.506425,1,1.0,1.0,1.6,6,7
1,1,3,94,0.2,1.121899,0,1.0,1.0,-1.6,1,6
1,1,3,95,-0.2,0.762592,1,1.0,1.0,0.2,7,1
1,1,3,96,-1.6,0.519473,1,1.0,1.0,-0.2,7,7
1,1,3,97,-0.2,0.624914,0,-1.0,1.0,-1.6,6,7
1,1,3,98,-0.8,0.831751,1,1.0,-1.0,-0.2,6,6
1,1,3,99,0.8,0.487801,0,1.0,1.0,-0.8,7,6
1,1,3,100,-0.2,0.909761,0,-1.0,1.0,0.8,6,7
1,1,3,101,-0.2,0.568549,0,-1.0,-1.0,-0.2,6,6
1,1,3,102,-0.8,0.699353,0,-1.0,-1.0,-0.2,6,6
1,1,3,103,0.2,0.53293,0,1.0,-1.0,-0.8,7,6
1,1,3,104,-0.8,0.622911,1,1.0,1.0,0.2,6,7
1,1,3,105,0.2,0.457741,0,1.0,1.0,-0.8,7,6
1,1,3,106,0.2,0.609904,0,1.0,1.0,0.2,7,7
1,1,3,107,0.8,0.465967,0,1.0,1.0,0.2,7,7
1,1,3,108,-0.2,1.16078,0,-1.0,1.0,0.8,7,7
1,1,3,109,-1.6,0.601488,1,1.0,-1.0,-0.2,7,7
1,1,3,110,-0.8,0.51237,1,1.0,1.0,-1.6,4,7
1,2,3,1,-0.8,0.516803,1,1.0,0.0,-100.0,4,-100
1,2,3,2,0.8,0.507811,0,1.0,1.0,-0.8,7,4
1,2,3,3,0.2,0.553745,1,-1.0,1.0,0.8,2,7
1,2,3,4,-0.2,0.575824,1,1.0,-1.0,0.2,5,2
1,2,3,5,-0.8,0.648697,0,-1.0,1.0,-0.2,6,5
1,2,3,6,1.6,0.442803,0,1.0,-1.0,-0.8,7,6
1,2,3,7,-0.2,0.750166,1,1.0,1.0,1.6,3,7
1,2,3,8,0.8,0.577969,0,1.0,1.0,-0.2,7,3
1,2,3,9,0.2,0.589781,0,1.0,1.0,0.8,7,7
1,2,3,10,-0.2,1.042522,1,1.0,1.0,0.2,4,7
1,2,3,11,0.8,0.44872,0,1.0,1.0,-0.2,7,4
1,2,3,12,0.8,0.630855,0,1.0,1.0,0.8,8,7
1,2,3,13,-0.2,0.569548,1,1.0,1.0,0.8,3,8
1,2,3,14,0.8,0.444237,0,1.0,1.0,-0.2,7,3
1,2,3,15,0.8,0.548402,0,1.0,1.0,0.8,6,7
1,2,3,16,-0.2,0.927697,1,1.0,1.0,0.8,1,6
1,2,3,17,-0.2,0.498653,1,1.0,1.0,-0.2,6,1
1,2,3,18,0.2,0.475304,0,1.0,1.0,-0.2,7,6
1,2,3,19,1.6,0.424943,0,1.0,1.0,0.2,8,7
1,2,3,20,0.2,0.791075,0,1.0,1.0,1.6,7,8
1,2,3,21,-0.2,1.363716,0,-1.0,1.0,0.2,2,7
1,2,3,22,0.8,0.503931,0,1.0,-1.0,-0.2,7,2
1,2,3,23,1.6,0.490048,0,1.0,1.0,0.8,7,7
1,2,3,24,0.2,1.006573,0,1.0,1.0,1.6,5,7
1,2,3,25,0.2,1.022131,1,-1.0,1.0,0.2,6,5
1,2,3,26,-0.8,0.681277,1,1.0,-1.0,0.2,6,6
1,2,3,27,-1.6,0.490334,1,1.0,1.0,-0.8,8,6
1,2,3,28,-0.8,0.48642,1,1.0,1.0,-1.6,7,8
1,2,3,29,-1.6,0.462609,1,1.0,1.0,-0.8,7,7
1,2,3,30,-0.2,0.486864,0,-1.0,1.0,-1.6,7,7
1,2,3,31,-1.6,0.465496,1,1.0,-1.0,-0.2,6,7
1,2,3,32,1.6,0.458173,0,1.0,1.0,-1.6,7,6
1,2,3,33,0.2,1.227662,0,1.0,1.0,1.6,3,7
1,2,3,34,-1.6,0.502226,1,1.0,1.0,0.2,7,3
1,2,3,35,-1.6,0.493281,1,1.0,1.0,-1.6,7,7
1,2,3,36,-0.8,0.485432,1,1.0,1.0,-1.6,7,7
1,2,3,37,-0.2,0.616322,0,-1.0,1.0,-0.8,7,7
1,2,3,38,-0.8,0.454917,1,1.0,-1.0,-0.2,6,7
1,2,3,39,-1.6,0.487667,1,1.0,1.0,-0.8,7,6
1,2,3,40,0.2,0.604789,0,1.0,1.0,-1.6,7,7
1,2,3,41,-0.2,0.70118,1,1.0,1.0,0.2,7,7
1,2,3,42,0.8,0.5074,0,1.0,1.0,-0.2,7,7
1,2,3,43,-0.2,0.762245,0,-1.0,1.0,0.8,7,7
1,2,3,44,-0.2,0.520973,0,-1.0,-1.0,-0.2,8,7
1,2,3,45,-1.6,0.500922,1,1.0,-1.0,-0.2,6,8
1,2,3,46,-1.6,0.468988,1,1.0,1.0,-1.6,7,6
1,2,3,47,-1.6,0.470529,1,1.0,1.0,-1.6,6,7
1,2,3,48,0.2,0.578823,0,1.0,1.0,-1.6,7,6
1,2,3,49,-0.8,0.521325,1,1.0,1.0,0.2,7,7
1,2,3,50,0.8,0.556868,0,1.0,1.0,-0.8,7,7
1,2,3,51,0.8,0.589721,0,1.0,1.0,0.8,8,7
1,2,3,52,1.6,0.615808,0,1.0,1.0,0.8,7,8
1,2,3,53,0.2,0.580703,0,1.0,1.0,1.6,7,7
1,2,3,54,-0.8,0.51583,1,1.0,1.0,0.2,6,7
1,2,3,55,-0.8,0.472128,1,1.0,1.0,-0.8,5,6
1,2,3,56,0.2,1.280014,0,1.0,1.0,-0.8,2,5
1,2,3,57,0.8,0.504916,0,1.0,1.0,0.2,7,2
1,2,3,58,-0.2,0.725904,0,-1.0,1.0,0.8,7,7
1,2,3,59,-0.2,1.029771,1,1.0,-1.0,-0.2,4,7
1,2,3,60,0.2,0.751518,0,1.0,1.0,-0.2,7,4
1,2,3,61,1.6,0.471627,0,1.0,1.0,0.2,8,7
1,2,3,62,-0.8,1.199544,1,1.0,1.0,1.6,4,8
1,2,3,63,0.2,0.490282,0,1.0,1.0,-0.8,7,4
1,2,3,64,0.2,0.533692,0,1.0,1.0,0.2,7,7
1,2,3,65,-0.2,0.797428,0,-1.0,1.0,0.2,7,7
1,2,3,66,0.8,0.457479,0,1.0,-1.0,-0.2,7,7
1,2,3,67,-0.2,0.500937,0,-1.0,1.0,0.8,5,7
1,2,3,68,-0.8,0.480216,1,1.0,-1.0,-0.2,6,5
1,2,3,69,0.2,0.60711,0,1.0,1.0,-0.8,7,6
1,2,3,70,0.2,0.605166,1,-1.0,1.0,0.2,2,7
1,2,3,71,-0.2,0.639978,1,1.0,-1.0,0.2,7,2
1,2,3,72,0.8,0.474159,0,1.0,1.0,-0.2,7,7
1,2,3,73,1.6,0.513594,0,1.0,1.0,0.8,7,7
1,2,3,74,1.6,0.439881,0,1.0,1.0,1.6,7,7
1,2,3,75,-0.8,0.447704,1,1.0,1.0,1.6,6,7
1,2,3,76,-0.8,0.531993,1,1.0,1.0,-0.8,7,6
1,2,3,77,-1.6,0.599314,1,1.0,1.0,-0.8,6,7
1,2,3,78,0.2,0.448829,0,1.0,1.0,-1.6,7,6
1,2,3,79,-0.8,0.470183,1,1.0,1.0,0.2,6,7
1,2,3,80,-0.2,0.733221,1,1.0,1.0,-0.8,3,6
1,2,3,81,0.8,0.513374,0,1.0,1.0,-0.2,7,3
1,2,3,82,0.2,0.453532,0,1.0,1.0,0.8,7,7
1,2,3,83,-0.2,1.232919,1,1.0,1.0,0.2,3,7
1,2,3,84,-0.8,0.439057,1,1.0,1.0,-0.2,7,3
1,2,3,85,-0.2,0.721825,1,1.0,1.0,-0.8,5,7
1,2,3,86,1.6,0.452074,0,1.0,1.0,-0.2,7,5
1,2,3,87,-0.8,0.597351,1,1.0,1.0,1.6,4,7
1,2,3,88,-0.2,0.878132,1,1.0,1.0,-0.8,5,4
1,2,3,89,0.8,0.437694,0,1.0,1.0,-0.2,7,5
1,2,3,90,-1.6,0.527538,1,1.0,1.0,0.8,5,7
1,2,3,91,0.2,0.437317,0,1.0,1.0,-1.6,6,5
1,2,3,92,1.6,0.443363,0,1.0,1.0,0.2,7,6
1,2,3,93,-0.8,0.483301,1,1.0,1.0,1.6,3,7
1,2,3,94,-0.8,0.581371,1,1.0,1.0,-0.8,5,3
1,2,3,95,0.2,1.049716,0,1.0,1.0,-0.8,6,5
1,2,3,96,1.6,0.47515,0,1.0,1.0,0.2,7,6
1,2,3,97,0.2,1.353883,1,-1.0,1.0,1.6,2,7
1,2,3,98,0.8,0.49343,0,1.0,-1.0,0.2,7,2
1,2,3,99,-0.8,0.596799,1,1.0,1.0,0.8,4,7
1,2,3,100,0.8,0.534175,0,1.0,1.0,-0.8,6,4
1,2,3,101,-0.2,0.516379,0,-1.0,1.0,0.8,7,6
1,2,3,103,-0.8,0.480551,1,1.0,0.0,-0.2,6,2
1,2,3,104,0.8,0.524749,0,1.0,1.0,-0.8,7,6
1,2,3,105,0.2,0.547691,0,1.0,1.0,0.8,5,7
1,2,3,106,0.8,0.483527,0,1.0,1.0,0.2,5,5
1,2,3,107,0.8,0.530271,0,1.0,1.0,0.8,7,5
1,2,3,108,-1.6,0.475012,1,1.0,1.0,0.8,4,7
1,2,3,109,1.6,0.497169,0,1.0,1.0,-1.6,7,4
1,2,3,110,0.2,0.576612,0,1.0,1.0,1.6,7,7
1,3,3,1,0.2,0.695699,1,-1.0,0.0,-100.0,6,-100
1,3,3,2,0.8,0.472793,0,1.0,-1.0,0.2,6,6
1,3,3,3,0.8,0.441692,0,1.0,1.0,0.8,6,6
1,3,3,4,-0.2,0.487641,1,1.0,1.0,0.8,3,6
1,3,3,5,-0.8,0.547093,1,1.0,1.0,-0.2,6,3
1,3,3,6,-1.6,0.463887,1,1.0,1.0,-0.8,6,6
1,3,3,7,-0.2,0.494244,0,-1.0,1.0,-1.6,7,6
1,3,3,8,0.2,0.433469,0,1.0,-1.0,-0.2,7,7
1,3,3,9,-0.8,0.646329,1,1.0,1.0,0.2,5,7
1,3,3,10,0.2,0.50447,0,1.0,1.0,-0.8,6,5
1,3,3,11,-0.8,0.570548,1,1.0,1.0,0.2,4,6
1,3,3,12,-0.8,0.489939,0,-1.0,1.0,-0.8,6,4
1,3,3,13,0.2,0.482623,0,1.0,-1.0,-0.8,7,6
1,3,3,14,1.6,0.440777,0,1.0,1.0,0.2,6,7
1,3,3,15,0.8,0.525433,0,1.0,1.0,1.6,6,6
1,3,3,16,-0.8,0.634858,1,1.0,1.0,0.8,4,6
1,3,3,17,-0.2,0.584311,1,1.0,1.0,-0.8,3,4
1,3,3,18,1.6,0.512607,0,1.0,1.0,-0.2,6,3
1,3,3,19,-0.8,0.459941,1,1.0,1.0,1.6,5,6
1,3,3,20,1.6,0.432527,0,1.0,1.0,-0.8,7,5
1,3,3,21,0.2,0.431735,0,1.0,1.0,1.6,6,7
1,3,3,22,-0.8,0.474141,1,1.0,1.0,0.2,4,6
1,3,3,23,0.8,0.496319,0,1.0,1.0,-0.8,6,4
1,3,3,24,0.2,0.579824,1,-1.0,1.0,0.8,4,6
1,3,3,25,0.2,0.963431,0,1.0,-1.0,0.2,6,4
1,3,3,26,-0.8,0.545525,1,1.0,1.0,0.2,6,6
1,3,3,27,-1.6,0.460741,1,1.0,1.0,-0.8,4,6
1,3,3,28,-0.8,0.492823,1,1.0,1.0,-1.6,6,4
1,3,3,29,-0.2,1.104243,1,1.0,1.0,-0.8,6,6
1,3,3,30,0.2,0.472403,0,1.0,1.0,-0.2,7,6
1,3,3,31,1.6,0.428711,0,1.0,1.0,0.2,6,7
1,3,3,32,-0.8,0.501432,1,1.0,1.0,1.6,6,6
1,3,3,33,0.8,0.435444,0,1.0,1.0,-0.8,7,6
1,3,3,34,1.6,0.433552,0,1.0,1.0,0.8,7,7
1,3,3,35,-0.2,0.960264,1,1.0,1.0,1.6,5,7
1,3,3,36,-1.6,0.468255,1,1.0,1.0,-0.2,6,5
1,3,3,37,0.8,0.445932,0,1.0,1.0,-1.6,7,6
1,3,3,38,-0.2,0.795998,1,1.0,1.0,0.8,3,7
1,3,3,39,-1.6,0.48304,1,1.0,1.0,-0.2,5,3
1,3,3,40,0.8,0.451516,0,1.0,1.0,-1.6,7,5
1,3,3,41,0.2,0.950909,1,-1.0,1.0,0.8,3,7
1,3,3,42,-1.6,0.46106,1,1.0,-1.0,0.2,3,3
1,3,3,43,1.6,0.449275,0,1.0,1.0,-1.6,7,3
1,3,3,44,-1.6,0.551284,1,1.0,1.0,1.6,3,7
1,3,3,45,-1.6,0.52616,1,1.0,1.0,-1.6,7,3
1,3,3,46,1.6,0.416312,0,1.0,1.0,-1.6,7,7
1,3,3,48,-0.2,0.839929,0,-1.0,0.0,0.2,8,8
1,3,3,49,-0.2,1.000081,0,-1.0,-1.0,-0.2,4,8
1,3,3,50,0.8,0.525856,0,1.0,-1.0,-0.2,7,4
1,3,3,51,-1.6,0.479345,1,1.0,1.0,0.8,4,7
1,3,3,52,0.8,0.479601,0,1.0,1.0,-1.6,6,4
1,3,3,53,0.2,0.572977,0,1.0,1.0,0.8,7,6
1,3,3,54,-0.2,0.919857,0,-1.0,1.0,0.2,6,7
1,3,3,55,0.2,0.465894,0,1.0,-1.0,-0.2,7,6
1,3,3,56,-0.2,0.62583,0,-1.0,1.0,0.2,7,7
1,3,3,57,-0.8,0.514156,1,1.0,-1.0,-0.2,6,7
1,3,3,58,-0.2,1.182269,0,-1.0,1.0,-0.8,6,6
1,3,3,59,1.6,0.416427,0,1.0,-1.0,-0.2,6,6
1,3,3,60,-0.8,0.756975,0,-1.0,1.0,1.6,6,6
1,3,3,61,-0.2,0.534278,1,1.0,-1.0,-0.8,3,6
1,3,3,62,-0.8,0.625296,1,1.0,1.0,-0.2,6,3
1,3,3,63,-1.6,0.589264,1,1.0,1.0,-0.8,7,6
1,3,3,64,0.2,0.744126,0,1.0,1.0,-1.6,7,7
1,3,3,65,0.8,0.434936,0,1.0,1.0,0.2,8,7
1,3,3,66,1.6,0.437448,0,1.0,1.0,0.8,7,8
1,3,3,67,0.8,0.449844,0,1.0,1.0,1.6,6,7
1,3,3,68,-0.2,0.862223,1,1.0,1.0,0.8,7,6
1,3,3,69,-0.8,0.570686,1,1.0,1.0,-0.2,6,7
1,3,3,70,0.2,0.516709,1,-1.0,1.0,-0.8,6,6
1,3,3,71,0.8,0.836883,0,1.0,-1.0,0.2,6,6
1,3,3,72,1.6,0.43073,0,1.0,1.0,0.8,6,6
1,3,3,73,-1.6,0.513583,1,1.0,1.0,1.6,6,6
1,3,3,74,-0.2,0.486508,1,1.0,1.0,-1.6,6,6
1,3,3,75,-1.6,0.464691,1,1.0,1.0,-0.2,5,6
1,3,3,76,-0.8,0.447298,1,1.0,1.0,-1.6,6,5
1,3,3,77,1.6,0.464754,0,1.0,1.0,-0.8,7,6
1,3,3,78,-0.8,0.52209,1,1.0,1.0,1.6,6,7
1,3,3,79,-1.6,0.467502,1,1.0,1.0,-0.8,6,6
1,3,3,80,0.2,0.73707,0,1.0,1.0,-1.6,7,6
1,3,3,81,-0.8,0.436413,1,1.0,1.0,0.2,5,7
1,3,3,82,-0.2,0.525429,1,1.0,1.0,-0.8,6,5
1,3,3,83,0.8,0.571065,0,1.0,1.0,-0.2,6,6
1,3,3,84,0.8,0.72602,0,1.0,1.0,0.8,7,6
1,3,3,85,0.2,0.539733,0,1.0,1.0,0.8,7,7
1,3,3,86,-0.2,0.727008,1,1.0,1.0,0.2,6,7
1,3,3,87,0.2,1.024173,0,1.0,1.0,-0.2,6,6
1,3,3,88,-0.8,0.555203,1,1.0,1.0,0.2,6,6
1,3,3,89,0.2,0.521362,0,1.0,1.0,-0.8,7,6
1,3,3,90,0.2,0.604136,0,1.0,1.0,0.2,7,7
1,3,3,91,0.2,0.481552,0,1.0,1.0,0.2,7,7
1,3,3,92,-0.2,0.474922,0,-1.0,1.0,0.2,7,7
1,3,3,93,-0.2,0.42586,0,-1.0,-1.0,-0.2,7,7
1,3,3,94,-0.8,0.587155,1,1.0,-1.0,-0.2,7,7
1,3,3,95,0.8,0.461074,0,1.0,1.0,-0.8,7,7
1,3,3,96,-0.2,0.457948,0,-1.0,1.0,0.8,6,7
1,3,3,97,-0.2,0.419382,0,-1.0,-1.0,-0.2,6,6
1,3,3,98,0.8,0.4541,0,1.0,-1.0,-0.2,5,6
1,3,3,99,-0.8,0.508071,1,1.0,1.0,0.8,6,5
1,3,3,100,0.8,0.448393,0,1.0,1.0,-0.8,6,6
1,3,3,101,0.8,0.431144,0,1.0,1.0,0.8,7,6
1,3,3,102,0.8,0.496621,0,1.0,1.0,0.8,7,7
1,3,3,104,-0.2,0.554091,1,1.0,0.0,-0.2,6,3
1,3,3,105,0.8,0.505407,0,1.0,1.0,-0.2,7,6
1,3,3,106,-0.2,0.649614,1,1.0,1.0,0.8,4,7
1,3,3,107,0.2,0.448282,0,1.0,1.0,-0.2,7,4
1,3,3,108,0.2,0.499153,0,1.0,1.0,0.2,7,7
1,3,3,109,1.6,0.438716,0,1.0,1.0,0.2,7,7
1,3,3,110,0.2,0.879266,0,1.0,1.0,1.6,7,7
2,1,1,1,0.8,0.734782,1,-1.0,0.0,-100.0,9,-100
2,1,1,2,0.2,1.260197,1,-1.0,-1.0,0.8,7,9
2,1,1,3,-1.6,1.491161,1,1.0,-1.0,0.2,9,7
2,1,1,4,-0.2,0.862814,1,1.0,1.0,-1.6,9,9
2,1,1,5,0.2,1.064273,1,-1.0,1.0,-0.2,6,9
2,1,1,6,1.6,0.977913,0,1.0,-1.0,0.2,9,6
2,1,1,7,1.6,0.973179,0,1.0,1.0,1.6,9,9
2,1,1,8,-0.8,0.686867,1,1.0,1.0,1.6,9,9
2,1,1,9,1.6,0.647032,0,1.0,1.0,-0.8,9,9
2,1,1,10,1.6,0.604545,0,1.0,1.0,1.6,9,9
2,1,1,11,-0.2,0.567865,1,1.0,1.0,1.6,9,9
2,1,1,12,0.8,0.867304,0,1.0,1.0,-0.2,7,9
2,1,1,13,-0.8,0.74218,1,1.0,1.0,0.8,9,7
2,1,1,14,-0.2,0.820351,1,1.0,1.0,-0.8,9,9
2,1,1,15,0.8,0.747842,0,1.0,1.0,-0.2,9,9
2,1,1,16,0.8,0.77238,1,-1.0,1.0,0.8,9,9
2,1,1,17,1.6,0.528704,0,1.0,-1.0,0.8,9,9
2,1,1,18,0.2,0.56808,0,1.0,1.0,1.6,9,9
2,1,1,19,-1.6,0.606226,1,1.0,1.0,0.2,9,9
2,1,1,20,0.8,0.775547,0,1.0,1.0,-1.6,6,9
2,1,1,21,1.6,0.631136,0,1.0,1.0,0.8,9,6
2,1,1,22,0.2,0.5785,1,-1.0,1.0,1.6,9,9
2,1,1,23,0.8,0.603325,0,1.0,-1.0,0.2,9,9
2,1,1,24,0.2,0.628761,1,-1.0,1.0,0.8,5,9
2,1,1,25,-0.2,0.643633,1,1.0,-1.0,0.2,9,5
2,1,1,26,0.2,1.302248,1,-1.0,1.0,-0.2,5,9
2,1,1,27,-0.8,0.585217,1,1.0,-1.0,0.2,9,5
2,1,1,28,0.2,1.121932,1,-1.0,1.0,-0.8,4,9
2,1,1,29,-1.6,0.775549,1,1.0,-1.0,0.2,9,4
2,1,1,30,-0.8,0.580446,1,1.0,1.0,-1.6,9,9
2,1,1,31,-1.6,0.592629,1,1.0,1.0,-0.8,9,9
2,1,1,32,-1.6,0.474473,1,1.0,1.0,-1.6,9,9
2,1,1,33,0.8,0.949419,0,1.0,1.0,-1.6,3,9
2,1,1,34,0.2,0.671526,1,-1.0,1.0,0.8,9,3
2,1,1,36,1.6,1.255599,1,-1.0,0.0,-0.2,3,3
2,1,1,37,-1.6,0.656608,1,1.0,-1.0,1.6,9,3
2,1,1,38,-0.2,0.796044,1,1.0,1.0,-1.6,4,9
2,1,1,39,-0.2,1.216857,1,1.0,1.0,-0.2,1,4
2,1,1,40,0.8,0.927897,0,1.0,1.0,-0.2,7,1
2,1,1,41,0.8,0.88479,0,1.0,1.0,0.8,8,7
2,1,1,42,-0.8,0.72516,1,1.0,1.0,0.8,9,8
2,1,1,43,-0.2,0.830955,1,1.0,1.0,-0.8,8,9
2,1,1,44,-0.2,0.884435,1,1.0,1.0,-0.2,5,8
2,1,1,45,0.2,0.647417,1,-1.0,1.0,-0.2,9,5
2,1,1,46,0.2,0.783502,1,-1.0,-1.0,0.2,9,9
2,1,1,47,0.8,1.257492,1,-1.0,-1.0,0.2,1,9
2,1,1,48,-0.8,0.652269,1,1.0,-1.0,0.8,9,1
2,1,1,49,0.2,0.783184,1,-1.0,1.0,-0.8,1,9
2,1,1,50,0.2,0.982111,1,-1.0,-1.0,0.2,9,1
2,1,1,51,-0.8,1.009627,1,1.0,-1.0,0.2,1,9
2,1,1,52,-1.6,0.730951,1,1.0,1.0,-0.8,9,1
2,1,1,53,-0.2,1.122526,1,1.0,1.0,-1.6,1,9
2,1,1,54,1.6,0.940871,0,1.0,1.0,-0.2,9,1
2,1,1,55,-0.2,0.677518,1,1.0,1.0,1.6,9,9
2,1,1,56,0.2,1.128984,0,1.0,1.0,-0.2,7,9
2,1,1,57,-0.8,0.673274,1,1.0,1.0,0.2,9,7
2,1,1,58,0.8,0.822747,0,1.0,1.0,-0.8,9,9
2,1,1,59,-0.8,0.873512,1,1.0,1.0,0.8,9,9
2,1,1,60,-0.2,0.846384,1,1.0,1.0,-0.8,9,9
2,1,1,61,0.2,0.779559,1,-1.0,1.0,-0.2,9,9
2,1,1,62,0.8,0.852739,0,1.0,-1.0,0.2,9,9
2,1,1,63,1.6,0.702817,0,1.0,1.0,0.8,9,9
2,1,1,64,0.2,0.556141,1,-1.0,1.0,1.6,1,9
2,1,1,65,-0.8,0.980184,0,-1.0,-1.0,0.2,9,1
2,1,1,66,-0.8,0.507123,0,-1.0,-1.0,-0.8,1,9
2,1,1,67,-0.8,0.585479,1,1.0,-1.0,-0.8,9,1
2,1,1,68,0.8,0.607582,0,1.0,1.0,-0.8,9,9
2,1,1,69,-0.8,0.557599,1,1.0,1.0,0.8,9,9
2,1,1,70,0.8,0.524429,0,1.0,1.0,-0.8,9,9
2,1,1,71,-0.8,0.554047,1,1.0,1.0,0.8,9,9
2,1,1,72,1.6,0.473469,0,1.0,1.0,-0.8,5,9
2,1,1,74,-0.8,0.628395,1,1.0,0.0,-0.2,9,1
2,1,1,75,-0.8,0.619773,1,1.0,1.0,-0.8,9,9
2,1,1,76,0.2,0.665537,1,-1.0,1.0,-0.8,9,9
2,1,1,77,-0.2,0.802788,1,1.0,-1.0,0.2,1,9
2,1,1,78,-0.2,0.766747,1,1.0,1.0,-0.2,1,1
2,1,1,79,0.8,0.725059,0,1.0,1.0,-0.2,9,1
2,1,1,80,0.2,0.564635,1,-1.0,1.0,0.8,1,9
2,1,1,81,0.2,0.717379,1,-1.0,-1.0,0.2,1,1
2,1,1,82,1.6,0.828213,0,1.0,-1.0,0.2,9,1
2,1,1,83,-0.2,0.844338,1,1.0,1.0,1.6,1,9
2,1,1,84,0.8,0.598589,0,1.0,1.0,-0.2,2,1
2,1,1,85,0.8,0.595371,0,1.0,1.0,0.8,9,2
2,1,1,87,0.2,0.823056,0,1.0,0.0,-0.2,1,9
2,1,1,88,-1.6,0.540537,1,1.0,1.0,0.2,9,1
2,1,1,89,-1.6,0.512673,1,1.0,1.0,-1.6,9,9
2,1,1,90,-0.2,0.4849,0,-1.0,1.0,-1.6,9,9
2,1,1,91,0.8,0.565058,0,1.0,-1.0,-0.2,9,9
2,1,1,92,1.6,0.491053,0,1.0,1.0,0.8,9,9
2,1,1,93,-1.6,0.67638,1,1.0,1.0,1.6,9,9
2,1,1,94,0.2,0.653799,1,-1.0,1.0,-1.6,1,9
2,1,1,95,-0.2,0.608761,0,-1.0,-1.0,0.2,9,1
2,1,1,96,-1.6,0.600814,1,1.0,-1.0,-0.2,9,9
2,1,1,97,-0.2,0.745765,0,-1.0,1.0,-1.6,1,9
2,1,1,98,-0.8,0.578442,1,1.0,-1.0,-0.2,9,1
2,1,1,99,0.8,0.701874,0,1.0,1.0,-0.8,1,9
2,1,1,100,-0.2,0.98811,0,-1.0,1.0,0.8,1,1
2,1,1,101,-0.2,0.852864,0,-1.0,-1.0,-0.2,1,1
2,1,1,102,-0.8,0.709695,1,1.0,-1.0,-0.2,9,1
2,1,1,103,0.2,0.604619,0,1.0,1.0,-0.8,9,9
2,1,1,104,-0.8,0.544688,1,1.0,1.0,0.2,9,9
2,1,1,105,0.2,0.5994,0,1.0,1.0,-0.8,9,9
2,1,1,106,0.2,0.661498,0,1.0,1.0,0.2,9,9
2,1,1,107,0.8,0.543225,0,1.0,1.0,0.2,9,9
2,1,1,108,-0.2,0.495869,0,-1.0,1.0,0.8,9,9
2,1,1,109,-1.6,0.787448,1,1.0,-1.0,-0.2,9,9
2,1,1,110,-0.8,0.456644,1,1.0,1.0,-1.6,9,9
2,2,1,1,-0.2,0.719068,0,-1.0,0.0,-100.0,7,-100
2,2,1,2,-0.8,0.611063,1,1.0,-1.0,-0.2,9,7
2,2,1,3,1.6,0.485853,0,1.0,1.0,-0.8,9,9
2,2,1,4,-0.2,0.600055,1,1.0,1.0,1.6,9,9
2,2,1,5,0.8,0.652314,1,-1.0,1.0,-0.2,9,9
2,2,1,6,0.2,0.506285,1,-1.0,-1.0,0.8,9,9
2,2,1,7,-0.2,0.518984,1,1.0,-1.0,0.2,9,9
2,2,1,8,0.8,0.501206,0,1.0,1.0,-0.2,9,9
2,2,1,9,0.8,0.475207,0,1.0,1.0,0.8,9,9
2,2,1,10,-0.2,0.761455,1,1.0,1.0,0.8,1,9
2,2,1,11,0.8,0.646923,0,1.0,1.0,-0.2,9,1
2,2,1,12,0.8,0.547692,0,1.0,1.0,0.8,9,9
2,2,1,13,-0.2,0.669613,1,1.0,1.0,0.8,9,9
2,2,1,14,-0.2,0.527844,1,1.0,1.0,-0.2,9,9
2,2,1,15,0.2,0.727488,1,-1.0,1.0,-0.2,9,9
2,2,1,16,1.6,0.566156,0,1.0,-1.0,0.2,9,9
2,2,1,17,0.2,0.608051,0,1.0,1.0,1.6,1,9
2,2,1,18,-0.2,0.565105,0,-1.0,1.0,0.2,1,1
2,2,1,19,0.2,0.57321,1,-1.0,-1.0,-0.2,1,1
2,2,1,20,1.6,0.608926,0,1.0,-1.0,0.2,9,1
2,2,1,21,0.2,0.583536,1,-1.0,1.0,1.6,1,9
2,2,1,22,0.2,0.573072,0,1.0,-1.0,0.2,9,1
2,2,1,23,-0.8,0.646239,1,1.0,1.0,0.2,9,9
2,2,1,24,-1.6,0.491592,1,1.0,1.0,-0.8,9,9
2,2,1,25,-0.8,0.469634,1,1.0,1.0,-1.6,9,9
2,2,1,26,-1.6,0.473471,1,1.0,1.0,-0.8,9,9
2,2,1,27,-0.2,0.553687,0,-1.0,1.0,-1.6,1,9
2,2,1,28,-1.6,0.501237,1,1.0,-1.0,-0.2,9,1
2,2,1,29,1.6,0.595434,0,1.0,1.0,-1.6,9,9
2,2,1,30,0.2,0.603651,0,1.0,1.0,1.6,1,9
2,2,1,31,-1.6,0.676269,1,1.0,1.0,0.2,9,1
2,2,1,32,-1.6,0.460432,1,1.0,1.0,-1.6,9,9
2,2,1,33,-0.8,0.679881,1,1.0,1.0,-1.6,9,9
2,2,1,34,-0.2,0.464427,1,1.0,1.0,-0.8,9,9
2,2,1,35,-0.8,0.568077,1,1.0,1.0,-0.2,9,9
2,2,1,36,-1.6,0.458203,1,1.0,1.0,-0.8,9,9
2,2,1,37,0.2,0.671138,0,1.0,1.0,-1.6,9,9
2,2,1,38,-0.2,0.502017,1,1.0,1.0,0.2,9,9
2,2,1,39,0.8,0.538806,0,1.0,1.0,-0.2,9,9
2,2,1,40,-0.2,0.462754,1,1.0,1.0,0.8,9,9
2,2,1,41,-0.2,0.635191,0,-1.0,1.0,-0.2,1,9
2,2,1,42,-1.6,0.558512,1,1.0,-1.0,-0.2,9,1
2,2,1,43,-1.6,0.560541,1,1.0,1.0,-1.6,9,9
2,2,1,44,-1.6,0.460738,1,1.0,1.0,-1.6,9,9
2,2,1,45,0.2,0.794131,1,-1.0,1.0,-1.6,1,9
2,2,1,46,-0.8,0.493594,1,1.0,-1.0,0.2,9,1
2,2,1,47,0.8,0.591147,0,1.0,1.0,-0.8,9,9
2,2,1,48,0.8,0.557167,1,-1.0,1.0,0.8,9,9
2,2,1,49,1.6,0.588697,0,1.0,-1.0,0.8,9,9
2,2,1,50,-0.2,0.548565,1,1.0,1.0,1.6,9,9
2,2,1,51,-0.8,0.537634,1,1.0,1.0,-0.2,9,9
2,2,1,52,-0.8,0.664882,1,1.0,1.0,-0.8,9,9
2,2,1,53,0.2,0.814472,1,-1.0,1.0,-0.8,1,9
2,2,1,54,0.8,0.671165,0,1.0,-1.0,0.2,9,1
2,2,1,55,-0.2,0.584269,1,1.0,1.0,0.8,9,9
2,2,1,56,-0.2,0.549125,1,1.0,1.0,-0.2,9,9
2,2,1,57,0.2,0.734091,1,-1.0,1.0,-0.2,1,9
2,2,1,58,1.6,0.615228,0,1.0,-1.0,0.2,9,1
2,2,1,59,-0.8,0.47978,1,1.0,1.0,1.6,9,9
2,2,1,60,0.2,0.572756,0,1.0,1.0,-0.8,1,9
2,2,1,61,0.2,0.608222,0,1.0,1.0,0.2,1,1
2,2,1,62,-0.2,0.594317,1,1.0,1.0,0.2,9,1
2,2,1,63,0.8,0.454528,1,-1.0,1.0,-0.2,1,9
2,2,1,64,-0.2,0.518773,1,1.0,-1.0,0.8,9,1
2,2,1,65,-0.8,0.489393,1,1.0,1.0,-0.2,9,9
2,2,1,66,0.2,0.58281,1,-1.0,1.0,-0.8,9,9
2,2,1,68,-0.8,0.577854,1,1.0,0.0,0.2,9,1
2,2,1,69,0.8,0.533277,0,1.0,1.0,-0.8,9,9
2,2,1,70,1.6,0.356924,0,1.0,1.0,0.8,9,9
2,2,1,71,1.6,0.393603,0,1.0,1.0,1.6,9,9
2,2,1,72,-0.8,0.489675,1,1.0,1.0,1.6,9,9
2,2,1,73,-0.8,0.462267,1,1.0,1.0,-0.8,9,9
2,2,1,74,-1.6,0.514541,1,1.0,1.0,-0.8,9,9
2,2,1,75,0.2,0.680741,0,1.0,1.0,-1.6,1,9
2,2,1,76,-0.8,0.408232,1,1.0,1.0,0.2,9,1
2,2,1,77,-0.2,0.616372,0,-1.0,1.0,-0.8,9,9
2,2,1,78,0.8,0.637142,0,1.0,-1.0,-0.2,4,9
2,2,1,79,0.2,0.675299,0,1.0,1.0,0.8,4,4
2,2,1,81,-0.8,0.770886,1,1.0,0.0,-0.2,9,9
2,2,1,82,-0.2,0.508939,1,1.0,1.0,-0.8,1,9
2,2,1,83,1.6,0.649324,0,1.0,1.0,-0.2,9,1
2,2,1,84,-0.8,0.532715,1,1.0,1.0,1.6,9,9
2,2,1,85,-0.2,0.461659,1,1.0,1.0,-0.8,9,9
2,2,1,86,0.8,0.572335,0,1.0,1.0,-0.2,9,9
2,2,1,87,-1.6,0.493766,1,1.0,1.0,0.8,9,9
2,2,1,88,0.2,0.546601,0,1.0,1.0,-1.6,9,9
2,2,1,89,1.6,0.558374,0,1.0,1.0,0.2,9,9
2,2,1,90,-0.8,0.500642,1,1.0,1.0,1.6,9,9
2,2,1,91,-0.8,0.609549,1,1.0,1.0,-0.8,9,9
2,2,1,92,0.2,0.643905,0,1.0,1.0,-0.8,9,9
2,2,1,93,1.6,0.540095,0,1.0,1.0,0.2,9,9
2,2,1,94,0.2,0.525278,1,-1.0,1.0,1.6,1,9
2,2,1,95,0.8,0.505467,0,1.0,-1.0,0.2,9,1
2,2,1,96,-0.8,0.484789,1,1.0,1.0,0.8,9,9
2,2,1,97,0.8,0.612351,0,1.0,1.0,-0.8,9,9
2,2,1,98,-0.2,0.815653,1,1.0,1.0,0.8,1,9
2,2,1,99,-0.2,0.640589,1,1.0,1.0,-0.2,1,1
2,2,1,100,-0.8,0.519288,1,1.0,1.0,-0.2,9,1
2,2,1,101,0.8,0.584726,0,1.0,1.0,-0.8,9,9
2,2,1,102,0.2,0.535546,1,-1.0,1.0,0.8,9,9
2,2,1,103,0.2,0.612463,0,1.0,-1.0,0.2,9,9
2,2,1,104,0.8,0.537807,0,1.0,1.0,0.2,9,9
2,2,1,105,-1.6,0.522445,1,1.0,1.0,0.8,9,9
2,2,1,106,1.6,0.469434,0,1.0,1.0,-1.6,9,9
2,2,1,107,0.2,0.423432,0,1.0,1.0,1.6,9,9
2,2,1,108,0.8,0.548308,1,-1.0,1.0,0.2,9,9
2,2,1,109,0.8,0.485979,0,1.0,-1.0,0.8,9,9
2,2,1,110,0.8,0.509957,0,1.0,1.0,0.8,9,9
2,3,1,1,-0.2,0.750599,1,1.0,0.0,-100.0,1,-100
2,3,1,2,-0.8,0.580638,1,1.0,1.0,-0.2,9,1
2,3,1,3,-1.6,0.542067,1,1.0,1.0,-0.8,9,9
2,3,1,4,-0.2,0.45232,1,1.0,1.0,-1.6,9,9
2,3,1,5,0.2,0.774923,1,-1.0,1.0,-0.2,9,9
2,3,1,6,-0.8,0.628506,1,1.0,-1.0,0.2,9,9
2,3,1,7,0.2,0.821066,0,1.0,1.0,-0.8,1,9
2,3,1,8,-0.8,0.554141,1,1.0,1.0,0.2,9,1
2,3,1,9,-0.8,0.515586,1,1.0,1.0,-0.8,9,9
2,3,1,10,0.2,0.348392,1,-1.0,1.0,-0.8,5,9
2,3,1,11,1.6,0.551116,0,1.0,-1.0,0.2,9,5
2,3,1,12,0.8,0.536676,0,1.0,1.0,1.6,9,9
2,3,1,13,-0.8,0.586829,1,1.0,1.0,0.8,9,9
2,3,1,14,-0.2,0.568888,0,-1.0,1.0,-0.8,9,9
2,3,1,15,1.6,0.544471,0,1.0,-1.0,-0.2,9,9
2,3,1,16,-0.8,0.531117,1,1.0,1.0,1.6,9,9
2,3,1,17,1.6,0.508604,0,1.0,1.0,-0.8,9,9
2,3,1,18,0.2,0.436114,0,1.0,1.0,1.6,1,9
2,3,1,19,-0.8,0.468365,1,1.0,1.0,0.2,9,1
2,3,1,20,0.8,0.71707,0,1.0,1.0,-0.8,1,9
2,3,1,21,0.2,0.472021,1,-1.0,1.0,0.8,9,1
2,3,1,22,0.2,0.844909,1,-1.0,-1.0,0.2,1,9
2,3,1,23,-0.8,0.593483,1,1.0,-1.0,0.2,9,1
2,3,1,24,-1.6,0.496405,1,1.0,1.0,-0.8,9,9
2,3,1,25,-0.8,0.478389,1,1.0,1.0,-1.6,9,9
2,3,1,26,-0.2,0.438719,1,1.0,1.0,-0.8,9,9
2,3,1,27,0.2,0.4786,1,-1.0,1.0,-0.2,9,9
2,3,1,28,1.6,0.528239,0,1.0,-1.0,0.2,9,9
2,3,1,29,-0.8,0.544269,1,1.0,1.0,1.6,9,9
2,3,1,30,0.8,0.583227,0,1.0,1.0,-0.8,9,9
2,3,1,31,1.6,0.480607,0,1.0,1.0,0.8,9,9
2,3,1,32,-0.2,0.461383,0,-1.0,1.0,1.6,1,9
2,3,1,33,-1.6,0.526031,1,1.0,-1.0,-0.2,9,1
2,3,1,34,0.8,0.588205,0,1.0,1.0,-1.6,9,9
2,3,1,35,-0.2,0.595669,1,1.0,1.0,0.8,9,9
2,3,1,36,-1.6,0.455141,1,1.0,1.0,-0.2,9,9
2,3,1,37,0.8,0.588005,0,1.0,1.0,-1.6,1,9
2,3,1,38,0.2,0.77485,0,1.0,1.0,0.8,9,1
2,3,1,39,-1.6,0.486348,1,1.0,1.0,0.2,9,9
2,3,1,40,1.6,0.627062,0,1.0,1.0,-1.6,9,9
2,3,1,41,-1.6,0.404464,1,1.0,1.0,1.6,9,9
2,3,1,42,-1.6,0.451902,1,1.0,1.0,-1.6,9,9
2,3,1,43,1.6,0.447999,0,1.0,1.0,-1.6,9,9
2,3,1,44,0.2,0.30212,1,-1.0,1.0,1.6,0,9
2,3,1,45,-0.2,0.321755,0,-1.0,-1.0,0.2,1,0
2,3,1,46,-0.2,0.55501,1,1.0,-1.0,-0.2,9,1
2,3,1,47,0.8,0.709299,1,-1.0,1.0,-0.2,1,9
2,3,1,48,-1.6,0.53008,1,1.0,-1.0,0.8,9,1
2,3,1,49,0.8,0.600195,0,1.0,1.0,-1.6,9,9
2,3,1,50,0.8,0.61293,0,1.0,1.0,0.8,9,9
2,3,1,51,-0.2,0.499747,0,-1.0,1.0,0.8,9,9
2,3,1,52,0.2,0.56403,1,-1.0,-1.0,-0.2,9,9
2,3,1,53,-0.2,0.450794,1,1.0,-1.0,0.2,1,9
2,3,1,54,-0.8,0.488449,1,1.0,1.0,-0.2,9,1
2,3,1,55,-0.2,0.683485,1,1.0,1.0,-0.8,9,9
2,3,1,56,1.6,0.487337,0,1.0,1.0,-0.2,9,9
2,3,1,57,-0.8,0.416003,1,1.0,1.0,1.6,9,9
2,3,1,58,-0.2,0.534792,0,-1.0,1.0,-0.8,9,9
2,3,1,59,-0.8,0.349614,1,1.0,-1.0,-0.2,9,9
2,3,1,60,-1.6,0.370316,1,1.0,1.0,-0.8,9,9
2,3,1,61,0.2,0.393795,1,-1.0,1.0,-1.6,1,9
2,3,1,62,0.8,0.493222,0,1.0,-1.0,0.2,9,1
2,3,1,63,1.6,0.483499,0,1.0,1.0,0.8,9,9
2,3,1,64,0.8,0.592229,1,-1.0,1.0,1.6,1,9
2,3,1,65,-0.2,0.613092,1,1.0,-1.0,0.8,9,1
2,3,1,66,-0.8,0.627215,1,1.0,1.0,-0.2,9,9
2,3,1,67,0.2,0.593364,0,1.0,1.0,-0.8,9,9
2,3,1,68,0.8,0.343462,1,-1.0,1.0,0.2,1,9
2,3,1,69,1.6,0.431696,0,1.0,-1.0,0.8,9,1
2,3,1,70,-1.6,0.532482,1,1.0,1.0,1.6,9,9
2,3,1,71,-0.2,0.750779,0,-1.0,1.0,-1.6,9,9
2,3,1,72,-1.6,0.482207,1,1.0,-1.0,-0.2,9,9
2,3,1,73,-0.8,0.43282,1,1.0,1.0,-1.6,1,9
2,3,1,74,0.8,0.457721,0,1.0,1.0,-0.8,9,1
2,3,1,75,-0.8,0.563198,1,1.0,1.0,0.8,9,9
2,3,1,76,-1.6,0.489303,1,1.0,1.0,-0.8,9,9
2,3,1,77,0.2,0.535519,0,1.0,1.0,-1.6,9,9
2,3,1,78,-0.8,0.633542,1,1.0,1.0,0.2,9,9
2,3,1,79,-0.2,0.507157,0,-1.0,1.0,-0.8,9,9
2,3,1,80,0.8,0.47573,1,-1.0,-1.0,-0.2,9,9
2,3,1,81,0.8,0.466597,0,1.0,-1.0,0.8,9,9
2,3,1,82,0.2,0.616057,1,-1.0,1.0,0.8,9,9
2,3,1,83,-0.2,0.448332,0,-1.0,-1.0,0.2,9,9
2,3,1,84,0.2,0.358809,1,-1.0,-1.0,-0.2,1,9
2,3,1,85,-0.8,0.527302,1,1.0,-1.0,0.2,9,1
2,3,1,86,0.2,0.76471,0,1.0,1.0,-0.8,9,9
2,3,1,87,0.2,0.562092,0,1.0,1.0,0.2,9,9
2,3,1,88,0.2,0.66967,0,1.0,1.0,0.2,9,9
2,3,1,89,-0.2,0.550279,1,1.0,1.0,0.2,9,9
2,3,1,90,-0.2,0.535647,1,1.0,1.0,-0.2,9,9
2,3,1,91,-0.8,0.597935,0,-1.0,1.0,-0.2,9,9
2,3,1,92,0.8,0.45737,0,1.0,-1.0,-0.8,9,9
2,3,1,93,-0.2,0.546852,1,1.0,1.0,0.8,9,9
2,3,1,94,-0.2,0.393421,1,1.0,1.0,-0.2,1,9
2,3,1,95,0.8,0.581612,1,-1.0,1.0,-0.2,1,1
2,3,1,96,-0.8,0.701228,1,1.0,-1.0,0.8,9,1
2,3,1,97,0.8,0.650101,0,1.0,1.0,-0.8,9,9
2,3,1,98,0.8,0.622868,0,1.0,1.0,0.8,9,9
2,3,1,99,0.8,0.552327,0,1.0,1.0,0.8,9,9
2,3,1,100,-0.2,0.638939,1,1.0,1.0,0.8,9,9
2,3,1,101,-0.2,0.481072,1,1.0,1.0,-0.2,9,9
2,3,1,102,0.8,0.402442,1,-1.0,1.0,-0.2,1,9
2,3,1,103,-0.2,0.559362,1,1.0,-1.0,0.8,9,1
2,3,1,104,0.2,0.611443,1,-1.0,1.0,-0.2,9,9
2,3,1,105,0.2,0.493689,0,1.0,-1.0,0.2,9,9
2,3,1,106,1.6,0.476479,0,1.0,1.0,0.2,9,9
2,3,1,107,0.2,0.4503,0,1.0,1.0,1.6,9,9
2,3,1,108,0.2,0.811498,0,1.0,1.0,0.2,9,9
2,3,1,109,0.2,0.444782,0,1.0,1.0,0.2,9,9
2,3,1,110,1.6,0.491043,0,1.0,1.0,0.2,9,9
2,1,2,1,0.2,0.728102,0,1.0,0.0,-100.0,9,-100
2,1,2,3,0.8,0.610399,0,1.0,0.0,0.8,4,9
2,1,2,4,-0.2,0.733237,1,1.0,1.0,0.8,4,4
2,1,2,5,-0.8,0.759418,1,1.0,1.0,-0.2,3,4
2,1,2,6,-1.6,0.458388,1,1.0,1.0,-0.8,9,3
2,1,2,7,-0.2,0.62026,0,-1.0,1.0,-1.6,9,9
2,1,2,8,0.2,0.496938,0,1.0,-1.0,-0.2,2,9
2,1,2,9,-0.8,0.573263,1,1.0,1.0,0.2,9,2
2,1,2,10,0.2,0.496843,1,-1.0,1.0,-0.8,9,9
2,1,2,11,-0.8,0.518886,1,1.0,-1.0,0.2,9,9
2,1,2,12,-0.8,0.593718,1,1.0,1.0,-0.8,9,9
2,1,2,13,0.2,0.704099,1,-1.0,1.0,-0.8,9,9
2,1,2,14,1.6,0.762042,0,1.0,-1.0,0.2,5,9
2,1,2,15,0.8,0.518036,0,1.0,1.0,1.6,4,5
2,1,2,16,-0.8,0.454934,1,1.0,1.0,0.8,9,4
2,1,2,17,-0.2,0.537595,1,1.0,1.0,-0.8,9,9
2,1,2,18,1.6,0.544464,0,1.0,1.0,-0.2,7,9
2,1,2,19,-0.8,0.559138,1,1.0,1.0,1.6,9,7
2,1,2,20,1.6,0.526603,0,1.0,1.0,-0.8,9,9
2,1,2,21,0.2,0.615552,1,-1.0,1.0,1.6,9,9
2,1,2,22,-0.8,0.625695,0,-1.0,-1.0,0.2,3,9
2,1,2,23,0.8,0.64194,0,1.0,-1.0,-0.8,4,3
2,1,2,24,0.2,0.538648,1,-1.0,1.0,0.8,4,4
2,1,2,25,0.2,0.526091,0,1.0,-1.0,0.2,9,4
2,1,2,26,-0.8,0.602142,1,1.0,1.0,0.2,9,9
2,1,2,27,-1.6,0.461052,1,1.0,1.0,-0.8,9,9
2,1,2,28,-0.8,0.568638,0,-1.0,1.0,-1.6,8,9
2,1,2,29,-0.2,0.51075,0,-1.0,-1.0,-0.8,6,8
2,1,2,30,0.2,0.485483,1,-1.0,-1.0,-0.2,9,6
2,1,2,31,1.6,0.514462,0,1.0,-1.0,0.2,9,9
2,1,2,32,-0.8,0.529714,1,1.0,1.0,1.6,9,9
2,1,2,33,0.8,0.397906,1,-1.0,1.0,-0.8,1,9
2,1,2,34,1.6,0.441235,0,1.0,-1.0,0.8,9,1
2,1,2,35,-0.2,0.422193,0,-1.0,1.0,1.6,3,9
2,1,2,36,-1.6,0.58513,1,1.0,-1.0,-0.2,9,3
2,1,2,37,0.8,0.497047,0,1.0,1.0,-1.6,9,9
2,1,2,38,-0.2,0.587204,1,1.0,1.0,0.8,5,9
2,1,2,39,-1.6,0.522126,1,1.0,1.0,-0.2,9,5
2,1,2,40,0.8,0.48399,0,1.0,1.0,-1.6,9,9
2,1,2,41,0.2,0.539566,0,1.0,1.0,0.8,4,9
2,1,2,42,-1.6,0.384267,1,1.0,1.0,0.2,9,4
2,1,2,43,1.6,0.455741,0,1.0,1.0,-1.6,9,9
2,1,2,44,-1.6,0.514397,1,1.0,1.0,1.6,9,9
2,1,2,45,-1.6,0.467836,1,1.0,1.0,-1.6,9,9
2,1,2,46,1.6,0.477371,0,1.0,1.0,-1.6,9,9
2,1,2,47,0.2,0.392183,0,1.0,1.0,1.6,9,9
2,1,2,48,-0.2,0.452883,0,-1.0,1.0,0.2,3,9
2,1,2,49,-0.2,0.484943,0,-1.0,-1.0,-0.2,3,3
2,1,2,50,0.8,0.465903,0,1.0,-1.0,-0.2,5,3
2,1,2,51,-1.6,0.567302,1,1.0,1.0,0.8,9,5
2,1,2,52,0.8,0.387569,0,1.0,1.0,-1.6,9,9
2,1,2,53,0.2,0.41436,0,1.0,1.0,0.8,9,9
2,1,2,54,-0.2,0.425246,0,-1.0,1.0,0.2,7,9
2,1,2,55,0.2,0.463076,0,1.0,-1.0,-0.2,6,7
2,1,2,56,-0.2,0.502507,0,-1.0,1.0,0.2,7,6
2,1,2,57,-0.8,0.445546,0,-1.0,-1.0,-0.2,2,7
2,1,2,58,-0.2,0.454712,0,-1.0,-1.0,-0.8,7,2
2,1,2,59,1.6,0.392272,0,1.0,-1.0,-0.2,9,7
2,1,2,60,-0.8,0.381683,0,-1.0,1.0,1.6,4,9
2,1,2,61,-0.2,0.398414,0,-1.0,-1.0,-0.8,4,4
2,1,2,62,-0.8,0.595423,1,1.0,-1.0,-0.2,9,4
2,1,2,63,-1.6,0.568625,1,1.0,1.0,-0.8,9,9
2,1,2,64,0.2,0.680032,0,1.0,1.0,-1.6,3,9
2,1,2,65,0.8,0.526142,1,-1.0,1.0,0.2,1,3
2,1,2,66,1.6,0.538424,0,1.0,-1.0,0.8,9,1
2,1,2,67,0.8,0.545887,0,1.0,1.0,1.6,2,9
2,1,2,68,-0.2,0.556574,1,1.0,1.0,0.8,6,2
2,1,2,69,-0.8,0.520265,1,1.0,1.0,-0.2,9,6
2,1,2,70,0.2,0.640294,1,-1.0,1.0,-0.8,9,9
2,1,2,71,0.8,0.473642,1,-1.0,-1.0,0.2,9,9
2,1,2,72,1.6,0.436648,0,1.0,-1.0,0.8,9,9
2,1,2,73,-1.6,0.61446,1,1.0,1.0,1.6,9,9
2,1,2,74,-0.2,0.577226,1,1.0,1.0,-1.6,9,9
2,1,2,75,-1.6,0.429997,1,1.0,1.0,-0.2,9,9
2,1,2,76,-0.8,0.445712,0,-1.0,1.0,-1.6,7,9
2,1,2,77,1.6,0.491885,0,1.0,-1.0,-0.8,9,7
2,1,2,78,-0.8,0.388328,0,-1.0,1.0,1.6,1,9
2,1,2,79,-1.6,0.599188,1,1.0,-1.0,-0.8,9,1
2,1,2,80,0.2,0.419476,0,1.0,1.0,-1.6,6,9
2,1,2,81,-0.8,0.584465,1,1.0,1.0,0.2,9,6
2,1,2,82,-0.2,0.502826,0,-1.0,1.0,-0.8,3,9
2,1,2,83,0.8,0.541064,0,1.0,-1.0,-0.2,9,3
2,1,2,84,0.8,0.513337,0,1.0,1.0,0.8,9,9
2,1,2,85,0.2,0.562863,0,1.0,1.0,0.8,5,9
2,1,2,86,-0.2,0.476263,0,-1.0,1.0,0.2,4,5
2,1,2,87,0.2,0.52184,1,-1.0,-1.0,-0.2,7,4
2,1,2,88,-0.8,0.479157,1,1.0,-1.0,0.2,9,7
2,1,2,89,0.2,0.464685,1,-1.0,1.0,-0.8,6,9
2,1,2,90,0.2,0.515585,0,1.0,-1.0,0.2,8,6
2,1,2,91,0.2,0.542261,0,1.0,1.0,0.2,9,8
2,1,2,92,-0.2,0.666343,0,-1.0,1.0,0.2,3,9
2,1,2,93,-0.2,0.457808,0,-1.0,-1.0,-0.2,4,3
2,1,2,94,-0.8,0.491929,1,1.0,-1.0,-0.2,9,4
2,1,2,95,0.8,0.493951,0,1.0,1.0,-0.8,9,9
2,1,2,96,-0.2,0.6702,0,-1.0,1.0,0.8,3,9
2,1,2,97,-0.2,0.449707,0,-1.0,-1.0,-0.2,3,3
2,1,2,98,0.8,0.451018,0,1.0,-1.0,-0.2,9,3
2,1,2,99,-0.8,0.500454,1,1.0,1.0,0.8,9,9
2,1,2,100,0.8,0.700527,0,1.0,1.0,-0.8,6,9
2,1,2,101,0.8,0.442587,0,1.0,1.0,0.8,9,6
2,1,2,102,0.8,0.416145,0,1.0,1.0,0.8,4,9
2,1,2,103,-0.2,0.515066,1,1.0,1.0,0.8,9,4
2,1,2,104,-0.2,0.531164,0,-1.0,1.0,-0.2,3,9
2,1,2,105,0.8,0.473294,0,1.0,-1.0,-0.2,8,3
2,1,2,106,-0.2,0.552794,1,1.0,1.0,0.8,9,8
2,1,2,107,0.2,0.486978,0,1.0,1.0,-0.2,3,9
2,1,2,108,0.2,0.588284,0,1.0,1.0,0.2,1,3
2,1,2,109,1.6,0.443755,1,-1.0,1.0,0.2,1,1
2,1,2,110,0.2,0.796556,1,-1.0,-1.0,1.6,6,1
2,2,2,1,-0.2,0.593447,1,1.0,0.0,-100.0,5,-100
2,2,2,2,0.2,0.692844,1,-1.0,1.0,-0.2,8,5
2,2,2,3,-0.2,0.568502,1,1.0,-1.0,0.2,8,8
2,2,2,4,0.8,0.551179,1,-1.0,1.0,-0.2,9,8
2,2,2,5,0.8,0.676811,1,-1.0,-1.0,0.8,3,9
2,2,2,6,1.6,0.602843,0,1.0,-1.0,0.8,4,3
2,2,2,7,-0.2,0.433811,0,-1.0,1.0,1.6,2,4
2,2,2,8,0.2,0.575709,1,-1.0,-1.0,-0.2,1,2
2,2,2,9,0.2,0.472602,1,-1.0,-1.0,0.2,9,1
2,2,2,10,0.8,0.61997,0,1.0,-1.0,0.2,8,9
2,2,2,11,-1.6,0.465946,1,1.0,1.0,0.8,9,8
2,2,2,12,-0.8,0.686258,1,1.0,1.0,-1.6,9,9
2,2,2,13,1.6,0.466954,0,1.0,1.0,-0.8,9,9
2,2,2,14,1.6,0.431129,0,1.0,1.0,1.6,9,9
2,2,2,15,-0.2,0.475138,1,1.0,1.0,1.6,9,9
2,2,2,16,0.8,0.435335,0,1.0,1.0,-0.2,9,9
2,2,2,17,1.6,0.617465,0,1.0,1.0,0.8,9,9
2,2,2,18,0.2,0.447573,0,1.0,1.0,1.6,9,9
2,2,2,19,-0.2,0.682302,1,1.0,1.0,0.2,7,9
2,2,2,20,-0.2,0.517748,0,-1.0,1.0,-0.2,2,7
2,2,2,21,-0.2,0.603231,1,1.0,-1.0,-0.2,6,2
2,2,2,22,0.8,0.518328,0,1.0,1.0,-0.2,9,6
2,2,2,23,0.2,0.571566,0,1.0,1.0,0.8,4,9
2,2,2,24,1.6,0.486208,0,1.0,1.0,0.2,9,4
2,2,2,25,-0.2,0.71025,1,1.0,1.0,1.6,6,9
2,2,2,26,-0.2,0.66492,1,1.0,1.0,-0.2,5,6
2,2,2,27,1.6,0.665861,0,1.0,1.0,-0.2,9,5
2,2,2,28,0.2,0.778777,1,-1.0,1.0,1.6,3,9
2,2,2,29,0.8,0.442322,0,1.0,-1.0,0.2,9,3
2,2,2,30,-0.8,0.440403,1,1.0,1.0,0.8,9,9
2,2,2,31,-0.2,0.511875,0,-1.0,1.0,-0.8,9,9
2,2,2,32,-1.6,0.510422,1,1.0,-1.0,-0.2,9,9
2,2,2,33,0.2,0.531587,0,1.0,1.0,-1.6,6,9
2,2,2,34,0.8,0.460921,0,1.0,1.0,0.2,9,6
2,2,2,35,1.6,0.390828,0,1.0,1.0,0.8,9,9
2,2,2,36,0.2,0.412171,0,1.0,1.0,1.6,9,9
2,2,2,37,0.8,0.387231,0,1.0,1.0,0.2,9,9
2,2,2,38,0.8,0.488376,1,-1.0,1.0,0.8,7,9
2,2,2,39,0.2,0.521412,0,1.0,-1.0,0.8,6,7
2,2,2,40,0.2,0.476169,0,1.0,1.0,0.2,6,6
2,2,2,41,0.8,0.575462,0,1.0,1.0,0.2,7,6
2,2,2,42,0.8,0.587696,0,1.0,1.0,0.8,9,7
2,2,2,43,-0.8,0.581671,1,1.0,1.0,0.8,9,9
2,2,2,44,-1.6,0.437943,1,1.0,1.0,-0.8,9,9
2,2,2,45,-1.6,0.382636,1,1.0,1.0,-1.6,9,9
2,2,2,46,-0.8,0.492876,1,1.0,1.0,-1.6,9,9
2,2,2,47,-0.8,0.718922,1,1.0,1.0,-0.8,7,9
2,2,2,48,0.2,0.503652,1,-1.0,1.0,-0.8,9,7
2,2,2,49,-1.6,0.407244,1,1.0,-1.0,0.2,9,9
2,2,2,50,0.2,0.412051,1,-1.0,1.0,-1.6,7,9
2,2,2,51,0.8,0.447876,0,1.0,-1.0,0.2,9,7
2,2,2,52,-0.8,0.453436,1,1.0,1.0,0.8,9,9
2,2,2,53,-0.8,0.390308,1,1.0,1.0,-0.8,9,9
2,2,2,54,-0.2,0.437679,1,1.0,1.0,-0.8,6,9
2,2,2,55,-0.8,0.426409,1,1.0,1.0,-0.2,9,6
2,2,2,56,-0.2,0.344808,1,1.0,1.0,-0.8,9,9
2,2,2,57,0.8,0.376673,1,-1.0,1.0,-0.2,4,9
2,2,2,58,-0.2,0.403468,0,-1.0,-1.0,0.8,4,4
2,2,2,59,0.8,0.530292,0,1.0,-1.0,-0.2,9,4
2,2,2,60,0.2,0.564237,1,-1.0,1.0,0.8,9,9
2,2,2,61,0.2,0.451535,1,-1.0,-1.0,0.2,9,9
2,2,2,62,0.8,0.332443,1,-1.0,-1.0,0.2,1,9
2,2,2,63,0.8,0.559009,0,1.0,-1.0,0.8,1,1
2,2,2,64,1.6,0.505689,0,1.0,1.0,0.8,9,1
2,2,2,65,-0.8,0.519789,1,1.0,1.0,1.6,9,9
2,2,2,66,0.8,0.504481,0,1.0,1.0,-0.8,9,9
2,2,2,67,-0.8,0.438634,1,1.0,1.0,0.8,9,9
2,2,2,68,-1.6,0.297379,1,1.0,1.0,-0.8,9,9
2,2,2,69,-0.8,0.351534,1,1.0,1.0,-1.6,9,9
2,2,2,70,-0.8,0.380066,1,1.0,1.0,-0.8,9,9
2,2,2,71,-0.8,0.314032,1,1.0,1.0,-0.8,9,9
2,2,2,72,1.6,0.635806,0,1.0,1.0,-0.8,9,9
2,2,2,73,-0.2,0.498595,0,-1.0,1.0,1.6,2,9
2,2,2,74,1.6,0.430162,1,-1.0,-1.0,-0.2,1,2
2,2,2,75,0.2,0.516905,1,-1.0,-1.0,1.6,9,1
2,2,2,76,0.8,0.495071,0,1.0,-1.0,0.2,9,9
2,2,2,77,-0.2,0.448746,0,-1.0,1.0,0.8,3,9
2,2,2,78,-0.8,0.567259,1,1.0,-1.0,-0.2,9,3
2,2,2,79,-0.8,0.506793,0,-1.0,1.0,-0.8,3,9
2,2,2,80,0.2,0.505507,1,-1.0,-1.0,-0.8,9,3
2,2,2,81,-0.8,0.483576,1,1.0,-1.0,0.2,9,9
2,2,2,82,-0.2,0.709098,1,1.0,1.0,-0.8,2,9
2,2,2,83,-1.6,0.438614,1,1.0,1.0,-0.2,9,2
2,2,2,84,0.2,0.415605,1,-1.0,1.0,-1.6,9,9
2,2,2,85,1.6,0.510943,0,1.0,-1.0,0.2,9,9
2,2,2,86,0.8,0.499596,0,1.0,1.0,1.6,9,9
2,2,2,87,-1.6,0.486277,1,1.0,1.0,0.8,9,9
2,2,2,88,0.2,0.475764,0,1.0,1.0,-1.6,9,9
2,2,2,89,-0.2,0.56531,0,-1.0,1.0,0.2,4,9
2,2,2,90,-1.6,0.390679,1,1.0,-1.0,-0.2,9,4
2,2,2,91,0.2,0.576733,0,1.0,1.0,-1.6,7,9
2,2,2,92,-0.2,0.524818,1,1.0,1.0,0.2,9,7
2,2,2,93,0.2,0.68293,0,1.0,1.0,-0.2,5,9
2,2,2,94,1.6,0.581595,0,1.0,1.0,0.2,9,5
2,2,2,95,-0.8,0.394525,1,1.0,1.0,1.6,9,9
2,2,2,96,-0.2,0.587972,1,1.0,1.0,-0.8,9,9
2,2,2,97,-1.6,0.510002,1,1.0,1.0,-0.2,9,9
2,2,2,98,-0.2,0.460975,1,1.0,1.0,-1.6,1,9
2,2,2,99,0.8,0.526268,0,1.0,1.0,-0.2,9,1
2,2,2,100,-1.6,0.501847,1,1.0,1.0,0.8,9,9
2,2,2,101,0.2,0.695219,0,1.0,1.0,-1.6,4,9
2,2,2,102,-0.2,0.662142,0,-1.0,1.0,0.2,2,4
2,2,2,103,0.2,0.568112,1,-1.0,-1.0,-0.2,9,2
2,2,2,104,-0.8,0.434254,1,1.0,-1.0,0.2,9,9
2,2,2,105,-0.2,0.413704,1,1.0,1.0,-0.8,1,9
2,2,2,106,-1.6,0.389268,1,1.0,1.0,-0.2,9,1
2,2,2,107,-0.8,0.407978,1,1.0,1.0,-1.6,9,9
2,2,2,108,-0.2,0.691503,0,-1.0,1.0,-0.8,1,9
2,2,2,109,0.2,0.476188,1,-1.0,-1.0,-0.2,9,1
2,2,2,110,-0.8,0.469691,1,1.0,-1.0,0.2,9,9
2,3,2,1,0.8,0.661721,0,1.0,0.0,-100.0,2,-100
2,3,2,2,-0.8,0.373093,1,1.0,1.0,0.8,9,2
2,3,2,3,-1.6,0.384431,1,1.0,1.0,-0.8,9,9
2,3,2,4,0.2,0.565238,1,-1.0,1.0,-1.6,9,9
2,3,2,5,0.8,0.33743,1,-1.0,-1.0,0.2,1,9
2,3,2,6,-0.2,0.440082,1,1.0,-1.0,0.8,9,1
2,3,2,7,0.2,0.454218,1,-1.0,1.0,-0.2,1,9
2,3,2,8,-0.2,0.592355,1,1.0,-1.0,0.2,9,1
2,3,2,9,0.8,0.799014,1,-1.0,1.0,-0.2,2,9
2,3,2,10,-0.2,0.581917,1,1.0,-1.0,0.8,3,2
2,3,2,11,0.8,0.537401,1,-1.0,1.0,-0.2,9,3
2,3,2,12,0.2,0.468775,1,-1.0,-1.0,0.8,9,9
2,3,2,13,1.6,0.626426,0,1.0,-1.0,0.2,9,9
2,3,2,14,-0.8,0.423793,1,1.0,1.0,1.6,9,9
2,3,2,15,0.2,0.573352,1,-1.0,1.0,-0.8,1,9
2,3,2,16,-1.6,0.380085,1,1.0,-1.0,0.2,9,1
2,3,2,17,0.2,0.532823,1,-1.0,1.0,-1.6,7,9
2,3,2,18,1.6,0.335298,1,-1.0,-1.0,0.2,1,7
2,3,2,19,-1.6,0.483401,1,1.0,-1.0,1.6,9,1
2,3,2,20,-0.2,0.474762,1,1.0,1.0,-1.6,9,9
2,3,2,21,0.8,0.513408,0,1.0,1.0,-0.2,9,9
2,3,2,22,1.6,0.602956,0,1.0,1.0,0.8,9,9
2,3,2,23,0.2,0.775014,1,-1.0,1.0,1.6,6,9
2,3,2,24,1.6,0.458631,0,1.0,-1.0,0.2,9,6
2,3,2,25,-0.2,0.566577,1,1.0,1.0,1.6,9,9
2,3,2,26,-0.8,0.385308,1,1.0,1.0,-0.2,9,9
2,3,2,27,-0.2,0.448719,1,1.0,1.0,-0.8,2,9
2,3,2,28,-0.8,0.452907,1,1.0,1.0,-0.2,9,2
2,3,2,29,-0.8,0.420387,1,1.0,1.0,-0.8,9,9
2,3,2,30,-0.8,0.447228,1,1.0,1.0,-0.8,8,9
2,3,2,31,0.8,0.602027,0,1.0,1.0,-0.8,8,8
2,3,2,32,0.2,0.428132,1,-1.0,1.0,0.8,9,8
2,3,2,33,1.6,0.675556,0,1.0,-1.0,0.2,9,9
2,3,2,34,0.8,0.53773,1,-1.0,1.0,1.6,1,9
2,3,2,35,0.2,0.531554,0,1.0,-1.0,0.8,6,1
2,3,2,36,-0.2,0.424717,0,-1.0,1.0,0.2,5,6
2,3,2,37,-0.8,0.480786,1,1.0,-1.0,-0.2,9,5
2,3,2,38,0.8,0.435038,0,1.0,1.0,-0.8,9,9
2,3,2,39,-1.6,0.583785,1,1.0,1.0,0.8,9,9
2,3,2,40,-0.8,0.424535,1,1.0,1.0,-1.6,9,9
2,3,2,41,0.8,0.583303,0,1.0,1.0,-0.8,9,9
2,3,2,42,-0.2,0.505403,1,1.0,1.0,0.8,9,9
2,3,2,43,0.2,0.43814,1,-1.0,1.0,-0.2,9,9
2,3,2,44,-0.2,0.490955,0,-1.0,-1.0,0.2,9,9
2,3,2,45,0.8,0.577932,0,1.0,-1.0,-0.2,6,9
2,3,2,46,-0.2,0.43729,1,1.0,1.0,0.8,9,6
2,3,2,47,0.8,0.577333,0,1.0,1.0,-0.2,9,9
2,3,2,48,1.6,0.561615,0,1.0,1.0,0.8,9,9
2,3,2,49,-1.6,0.490266,1,1.0,1.0,1.6,9,9
2,3,2,50,-0.2,0.581724,1,1.0,1.0,-1.6,2,9
2,3,2,51,-1.6,0.480758,1,1.0,1.0,-0.2,9,2
2,3,2,52,0.8,0.586582,0,1.0,1.0,-1.6,9,9
2,3,2,53,1.6,0.530932,0,1.0,1.0,0.8,9,9
2,3,2,54,-1.6,0.469301,1,1.0,1.0,1.6,9,9
2,3,2,55,0.2,0.461541,1,-1.0,1.0,-1.6,2,9
2,3,2,56,0.2,0.431038,0,1.0,-1.0,0.2,7,2
2,3,2,57,0.2,0.555198,1,-1.0,1.0,0.2,4,7
2,3,2,58,-0.2,0.664812,0,-1.0,-1.0,0.2,5,4
2,3,2,59,0.2,0.507259,1,-1.0,-1.0,-0.2,3,5
2,3,2,60,-0.8,0.562926,1,1.0,-1.0,0.2,9,3
2,3,2,61,0.2,0.684002,0,1.0,1.0,-0.8,7,9
2,3,2,62,0.8,0.607403,0,1.0,1.0,0.2,7,7
2,3,2,63,-0.2,0.533236,1,1.0,1.0,0.8,9,7
2,3,2,64,-0.8,0.522707,1,1.0,1.0,-0.2,9,9
2,3,2,65,-0.2,0.573624,0,-1.0,1.0,-0.8,3,9
2,3,2,66,0.2,0.527078,0,1.0,-1.0,-0.2,1,3
2,3,2,67,-0.2,0.564008,1,1.0,1.0,0.2,9,1
2,3,2,68,0.8,0.536027,0,1.0,1.0,-0.2,9,9
2,3,2,69,-0.8,0.416682,1,1.0,1.0,0.8,9,9
2,3,2,70,-0.8,0.476743,1,1.0,1.0,-0.8,9,9
2,3,2,71,1.6,0.513064,0,1.0,1.0,-0.8,9,9
2,3,2,73,0.8,0.547529,1,-1.0,0.0,0.2,6,4
2,3,2,74,0.8,0.657839,1,-1.0,-1.0,0.8,4,6
2,3,2,75,-1.6,0.49418,1,1.0,-1.0,0.8,9,4
2,3,2,76,-0.2,0.422326,1,1.0,1.0,-1.6,3,9
2,3,2,77,0.8,0.605814,0,1.0,1.0,-0.2,8,3
2,3,2,78,-0.8,0.359087,1,1.0,1.0,0.8,9,8
2,3,2,79,0.2,0.56339,0,1.0,1.0,-0.8,4,9
2,3,2,80,-0.8,0.38469,1,1.0,1.0,0.2,9,4
2,3,2,81,1.6,0.479643,0,1.0,1.0,-0.8,9,9
2,3,2,82,0.8,0.605024,1,-1.0,1.0,1.6,2,9
2,3,2,83,-0.2,0.637794,1,1.0,-1.0,0.8,3,2
2,3,2,84,-0.2,0.459385,1,1.0,1.0,-0.2,9,3
2,3,2,85,1.6,0.570117,0,1.0,1.0,-0.2,8,9
2,3,2,86,-1.6,0.368204,1,1.0,1.0,1.6,9,8
2,3,2,87,-0.2,0.718828,1,1.0,1.0,-1.6,2,9
2,3,2,88,0.2,0.505057,1,-1.0,1.0,-0.2,7,2
2,3,2,89,0.2,0.617908,1,-1.0,-1.0,0.2,3,7
2,3,2,90,-1.6,0.437962,1,1.0,-1.0,0.2,9,3
2,3,2,91,-0.8,0.495075,1,1.0,1.0,-1.6,9,9
2,3,2,92,0.2,0.45255,1,-1.0,1.0,-0.8,4,9
2,3,2,93,-0.8,0.407846,1,1.0,-1.0,0.2,3,4
2,3,2,94,-0.8,0.438615,1,1.0,1.0,-0.8,9,3
2,3,2,95,-1.6,0.388601,1,1.0,1.0,-0.8,9,9
2,3,2,96,-0.8,0.395284,1,1.0,1.0,-1.6,9,9
2,3,2,97,0.2,0.349427,1,-1.0,1.0,-0.8,9,9
2,3,2,98,1.6,0.64027,0,1.0,-1.0,0.2,9,9
2,3,2,99,0.8,0.515068,1,-1.0,1.0,1.6,3,9
2,3,2,100,-0.8,0.441776,1,1.0,-1.0,0.8,9,3
2,3,2,101,-1.6,0.346675,1,1.0,1.0,-0.8,9,9
2,3,2,102,0.2,0.348089,1,-1.0,1.0,-1.6,3,9
2,3,2,103,-0.2,0.61817,0,-1.0,-1.0,0.2,6,3
2,3,2,104,0.2,0.365628,1,-1.0,-1.0,-0.2,7,6
2,3,2,105,-0.2,0.361156,1,1.0,-1.0,0.2,6,7
2,3,2,106,-0.2,0.344687,1,1.0,1.0,-0.2,9,6
2,3,2,107,1.6,0.420012,1,-1.0,1.0,-0.2,1,9
2,3,2,108,-0.2,0.400186,1,1.0,-1.0,1.6,9,1
2,3,2,109,0.8,0.484943,1,-1.0,1.0,-0.2,2,9
2,3,2,110,-0.8,0.398068,1,1.0,-1.0,0.8,9,2
2,1,3,1,-0.2,0.572939,1,1.0,0.0,-100.0,9,-100
2,1,3,2,0.2,0.594231,1,-1.0,1.0,-0.2,9,9
2,1,3,3,-0.2,0.417207,1,1.0,-1.0,0.2,9,9
2,1,3,4,0.8,0.587912,1,-1.0,1.0,-0.2,9,9
2,1,3,5,0.8,0.617472,1,-1.0,-1.0,0.8,9,9
2,1,3,6,1.6,0.590314,0,1.0,-1.0,0.8,9,9
2,1,3,7,-0.2,0.717773,1,1.0,1.0,1.6,9,9
2,1,3,8,0.2,0.493696,1,-1.0,1.0,-0.2,9,9
2,1,3,9,0.2,0.414675,1,-1.0,-1.0,0.2,8,9
2,1,3,10,0.8,0.487946,1,-1.0,-1.0,0.2,7,8
2,1,3,11,-1.6,0.389108,1,1.0,-1.0,0.8,9,7
2,1,3,12,-0.8,0.447437,1,1.0,1.0,-1.6,9,9
2,1,3,13,1.6,0.633635,0,1.0,1.0,-0.8,9,9
2,1,3,14,1.6,0.539531,0,1.0,1.0,1.6,9,9
2,1,3,15,-0.2,0.379622,1,1.0,1.0,1.6,9,9
2,1,3,16,0.8,0.348641,1,-1.0,1.0,-0.2,1,9
2,1,3,17,1.6,0.482088,0,1.0,-1.0,0.8,9,1
2,1,3,18,0.2,0.464909,1,-1.0,1.0,1.6,9,9
2,1,3,19,-0.2,0.493907,0,-1.0,-1.0,0.2,9,9
2,1,3,20,-0.2,0.464232,1,1.0,-1.0,-0.2,9,9
2,1,3,21,-0.2,0.451793,1,1.0,1.0,-0.2,9,9
2,1,3,22,0.8,0.42135,1,-1.0,1.0,-0.2,1,9
2,1,3,23,0.2,0.511374,1,-1.0,-1.0,0.8,9,1
2,1,3,24,1.6,0.542101,0,1.0,-1.0,0.2,9,9
2,1,3,25,-0.2,0.440358,1,1.0,1.0,1.6,9,9
2,1,3,26,-0.2,0.56181,0,-1.0,1.0,-0.2,5,9
2,1,3,27,1.6,0.467371,1,-1.0,-1.0,-0.2,5,5
2,1,3,28,0.2,0.481927,1,-1.0,-1.0,1.6,9,5
2,1,3,29,0.8,0.606252,0,1.0,-1.0,0.2,4,9
2,1,3,30,-0.8,0.544921,1,1.0,1.0,0.8,9,4
2,1,3,31,-0.2,0.67913,0,-1.0,1.0,-0.8,7,9
2,1,3,32,-1.6,0.468526,1,1.0,-1.0,-0.2,9,7
2,1,3,33,0.2,0.404522,1,-1.0,1.0,-1.6,9,9
2,1,3,34,0.8,0.384659,1,-1.0,-1.0,0.2,4,9
2,1,3,35,1.6,0.61609,0,1.0,-1.0,0.8,8,4
2,1,3,36,0.2,0.564932,1,-1.0,1.0,1.6,9,8
2,1,3,37,0.8,0.452261,1,-1.0,-1.0,0.2,7,9
2,1,3,38,0.8,0.50927,1,-1.0,-1.0,0.8,9,7
2,1,3,39,0.2,0.457251,1,-1.0,-1.0,0.8,9,9
2,1,3,40,0.2,0.480002,1,-1.0,-1.0,0.2,9,9
2,1,3,41,0.8,0.388997,1,-1.0,-1.0,0.2,1,9
2,1,3,42,0.8,0.560751,0,1.0,-1.0,0.8,9,1
2,1,3,43,-0.8,0.714574,1,1.0,1.0,0.8,9,9
2,1,3,44,-1.6,0.610162,1,1.0,1.0,-0.8,9,9
2,1,3,45,-1.6,0.443102,1,1.0,1.0,-1.6,9,9
2,1,3,46,-0.8,0.430457,1,1.0,1.0,-1.6,9,9
2,1,3,47,-0.8,0.479121,1,1.0,1.0,-0.8,9,9
2,1,3,48,0.2,0.317272,1,-1.0,1.0,-0.8,2,9
2,1,3,49,-1.6,0.422649,1,1.0,-1.0,0.2,9,2
2,1,3,50,0.2,0.612734,0,1.0,1.0,-1.6,4,9
2,1,3,51,0.8,0.61158,0,1.0,1.0,0.2,2,4
2,1,3,52,-0.8,0.502225,1,1.0,1.0,0.8,9,2
2,1,3,53,-0.8,0.450404,1,1.0,1.0,-0.8,9,9
2,1,3,54,-0.2,0.361242,1,1.0,1.0,-0.8,9,9
2,1,3,55,-0.8,0.389543,1,1.0,1.0,-0.2,9,9
2,1,3,56,-0.2,0.518035,1,1.0,1.0,-0.8,9,9
2,1,3,57,0.8,0.676341,1,-1.0,1.0,-0.2,2,9
2,1,3,58,-0.2,0.521905,1,1.0,-1.0,0.8,9,2
2,1,3,59,0.8,0.638696,1,-1.0,1.0,-0.2,4,9
2,1,3,60,0.2,0.403592,1,-1.0,-1.0,0.8,9,4
2,1,3,61,0.2,0.541654,1,-1.0,-1.0,0.2,8,9
2,1,3,62,0.8,0.469689,1,-1.0,-1.0,0.2,9,8
2,1,3,63,0.8,0.452139,1,-1.0,-1.0,0.8,9,9
2,1,3,65,-0.8,0.440946,1,1.0,0.0,1.6,9,9
2,1,3,66,0.8,0.523471,1,-1.0,1.0,-0.8,4,9
2,1,3,67,-0.8,0.432991,1,1.0,-1.0,0.8,9,4
2,1,3,68,-1.6,0.43576,1,1.0,1.0,-0.8,9,9
2,1,3,69,-0.8,0.389977,1,1.0,1.0,-1.6,9,9
2,1,3,70,-0.8,0.369347,1,1.0,1.0,-0.8,9,9
2,1,3,71,-0.8,0.378577,1,1.0,1.0,-0.8,9,9
2,1,3,72,1.6,0.482163,1,-1.0,1.0,-0.8,8,9
2,1,3,73,-0.2,0.469483,1,1.0,-1.0,1.6,9,8
2,1,3,74,1.6,0.419699,1,-1.0,1.0,-0.2,4,9
2,1,3,75,0.2,0.527325,1,-1.0,-1.0,1.6,2,4
2,1,3,77,-0.2,0.666049,1,1.0,0.0,0.8,9,1
2,1,3,78,-0.8,0.468329,1,1.0,1.0,-0.2,9,9
2,1,3,79,-0.8,0.318921,1,1.0,1.0,-0.8,9,9
2,1,3,80,0.2,0.39927,1,-1.0,1.0,-0.8,9,9
2,1,3,81,-0.8,0.412711,1,1.0,-1.0,0.2,9,9
2,1,3,82,-0.2,0.588784,1,1.0,1.0,-0.8,9,9
2,1,3,83,-1.6,0.396141,1,1.0,1.0,-0.2,9,9
2,1,3,84,0.2,0.328373,1,-1.0,1.0,-1.6,1,9
2,1,3,85,1.6,0.538769,0,1.0,-1.0,0.2,9,1
2,1,3,86,0.8,0.556069,0,1.0,1.0,1.6,9,9
2,1,3,87,-1.6,0.491065,1,1.0,1.0,0.8,9,9
2,1,3,88,0.2,0.476316,1,-1.0,1.0,-1.6,9,9
2,1,3,89,-0.2,0.62114,1,1.0,-1.0,0.2,2,9
2,1,3,90,-1.6,0.353925,1,1.0,1.0,-0.2,9,2
2,1,3,91,0.2,0.452651,1,-1.0,1.0,-1.6,9,9
2,1,3,92,-0.2,0.538784,1,1.0,-1.0,0.2,9,9
2,1,3,93,0.2,0.338925,1,-1.0,1.0,-0.2,7,9
2,1,3,94,1.6,0.508036,0,1.0,-1.0,0.2,9,7
2,1,3,95,-0.8,0.32176,1,1.0,1.0,1.6,9,9
2,1,3,96,-0.2,0.309227,1,1.0,1.0,-0.8,9,9
2,1,3,97,-1.6,0.3434,1,1.0,1.0,-0.2,9,9
2,1,3,98,-0.2,0.279417,1,1.0,1.0,-1.6,2,9
2,1,3,99,0.8,0.554547,1,-1.0,1.0,-0.2,3,2
2,1,3,100,-1.6,0.36457,1,1.0,-1.0,0.8,9,3
2,1,3,101,0.2,0.396305,1,-1.0,1.0,-1.6,9,9
2,1,3,102,-0.2,0.327189,1,1.0,-1.0,0.2,2,9
2,1,3,103,0.2,0.463887,1,-1.0,1.0,-0.2,9,2
2,1,3,104,-0.8,0.344091,1,1.0,-1.0,0.2,9,9
2,1,3,105,-0.2,0.363604,1,1.0,1.0,-0.8,9,9
2,1,3,106,-1.6,0.557786,1,1.0,1.0,-0.2,9,9
2,1,3,107,-0.8,0.313134,1,1.0,1.0,-1.6,2,9
2,1,3,108,-0.2,0.669204,1,1.0,1.0,-0.8,9,2
2,1,3,109,0.2,0.422046,1,-1.0,1.0,-0.2,9,9
2,1,3,110,-0.8,0.29755,1,1.0,-1.0,0.2,9,9
2,2,3,1,0.8,0.628589,0,1.0,0.0,-100.0,9,-100
2,2,3,2,-0.8,0.489887,1,1.0,1.0,0.8,9,9
2,2,3,3,-1.6,0.403903,1,1.0,1.0,-0.8,9,9
2,2,3,4,0.2,0.534659,1,-1.0,1.0,-1.6,9,9
2,2,3,5,0.8,0.432196,1,-1.0,-1.0,0.2,3,9
2,2,3,6,-0.2,0.442352,1,1.0,-1.0,0.8,9,3
2,2,3,7,0.2,0.660637,1,-1.0,1.0,-0.2,5,9
2,2,3,8,-0.2,0.464566,1,1.0,-1.0,0.2,9,5
2,2,3,9,0.8,0.395376,1,-1.0,1.0,-0.2,1,9
2,2,3,10,-0.2,0.506824,1,1.0,-1.0,0.8,9,1
2,2,3,11,0.8,0.312415,1,-1.0,1.0,-0.2,2,9
2,2,3,12,0.2,0.56174,1,-1.0,-1.0,0.8,9,2
2,2,3,13,1.6,0.343326,1,-1.0,-1.0,0.2,2,9
2,2,3,14,-0.8,0.531895,1,1.0,-1.0,1.6,9,2
2,2,3,15,0.2,0.554698,1,-1.0,1.0,-0.8,9,9
2,2,3,16,-1.6,0.508912,1,1.0,-1.0,0.2,9,9
2,2,3,17,0.2,0.547756,1,-1.0,1.0,-1.6,4,9
2,2,3,18,1.6,0.576084,0,1.0,-1.0,0.2,9,4
2,2,3,19,-1.6,0.477987,1,1.0,1.0,1.6,9,9
2,2,3,20,-0.2,0.658838,0,-1.0,1.0,-1.6,8,9
2,2,3,21,0.8,0.651601,0,1.0,-1.0,-0.2,9,8
2,2,3,22,1.6,0.61637,0,1.0,1.0,0.8,9,9
2,2,3,23,0.2,0.453986,0,1.0,1.0,1.6,8,9
2,2,3,24,1.6,0.555432,0,1.0,1.0,0.2,9,8
2,2,3,25,-0.2,0.428293,1,1.0,1.0,1.6,9,9
2,2,3,26,-0.8,0.381588,1,1.0,1.0,-0.2,9,9
2,2,3,27,-0.2,0.360419,1,1.0,1.0,-0.8,9,9
2,2,3,28,-0.8,0.365999,1,1.0,1.0,-0.2,9,9
2,2,3,29,-0.8,0.506614,1,1.0,1.0,-0.8,9,9
2,2,3,30,-0.8,0.415395,1,1.0,1.0,-0.8,9,9
2,2,3,31,0.8,0.47066,1,-1.0,1.0,-0.8,5,9
2,2,3,32,0.2,0.445605,1,-1.0,-1.0,0.8,9,5
2,2,3,33,1.6,0.57851,0,1.0,-1.0,0.2,9,9
2,2,3,34,0.8,0.665317,0,1.0,1.0,1.6,9,9
2,2,3,35,0.2,0.695738,1,-1.0,1.0,0.8,9,9
2,2,3,36,-0.2,0.413429,1,1.0,-1.0,0.2,4,9
2,2,3,37,-0.8,0.460987,1,1.0,1.0,-0.2,9,4
2,2,3,38,0.8,0.844538,0,1.0,1.0,-0.8,3,9
2,2,3,39,-1.6,0.562602,1,1.0,1.0,0.8,9,3
2,2,3,40,-0.8,0.423392,1,1.0,1.0,-1.6,9,9
2,2,3,41,0.8,0.582902,1,-1.0,1.0,-0.8,9,9
2,2,3,42,-0.2,0.428995,1,1.0,-1.0,0.8,9,9
2,2,3,44,-0.2,0.347265,1,1.0,0.0,0.2,9,9
2,2,3,45,0.8,0.431331,0,1.0,1.0,-0.2,9,9
2,2,3,46,-0.2,0.502251,1,1.0,1.0,0.8,9,9
2,2,3,47,0.8,0.640198,0,1.0,1.0,-0.2,9,9
2,2,3,48,1.6,0.557029,0,1.0,1.0,0.8,9,9
2,2,3,49,-1.6,0.364517,1,1.0,1.0,1.6,9,9
2,2,3,50,-0.2,0.329214,1,1.0,1.0,-1.6,9,9
2,2,3,51,-1.6,0.39535,1,1.0,1.0,-0.2,9,9
2,2,3,52,0.8,0.30686,1,-1.0,1.0,-1.6,1,9
2,2,3,53,1.6,0.720241,1,-1.0,-1.0,0.8,1,1
2,2,3,54,-1.6,0.430431,1,1.0,-1.0,1.6,9,1
2,2,3,55,0.2,0.427116,1,-1.0,1.0,-1.6,9,9
2,2,3,56,0.2,0.605548,1,-1.0,-1.0,0.2,9,9
2,2,3,57,0.2,0.463614,1,-1.0,-1.0,0.2,9,9
2,2,3,58,-0.2,0.490242,0,-1.0,-1.0,0.2,3,9
2,2,3,59,0.2,0.433699,1,-1.0,-1.0,-0.2,9,3
2,2,3,60,-0.8,0.374381,1,1.0,-1.0,0.2,9,9
2,2,3,61,0.2,0.654544,0,1.0,1.0,-0.8,9,9
2,2,3,62,0.8,0.385262,1,-1.0,1.0,0.2,1,9
2,2,3,63,-0.2,0.463571,1,1.0,-1.0,0.8,9,1
2,2,3,64,-0.8,0.413708,1,1.0,1.0,-0.2,9,9
2,2,3,65,-0.2,0.509235,1,1.0,1.0,-0.8,5,9
2,2,3,66,0.2,0.569426,0,1.0,1.0,-0.2,6,5
2,2,3,67,-0.2,0.675977,1,1.0,1.0,0.2,9,6
2,2,3,68,0.8,0.62887,0,1.0,1.0,-0.2,9,9
2,2,3,69,-0.8,0.47044,1,1.0,1.0,0.8,9,9
2,2,3,70,-0.8,0.441716,1,1.0,1.0,-0.8,9,9
2,2,3,71,1.6,0.381828,1,-1.0,1.0,-0.8,1,9
2,2,3,72,0.2,0.468112,1,-1.0,-1.0,1.6,9,1
2,2,3,73,0.8,0.622237,0,1.0,-1.0,0.2,9,9
2,2,3,74,0.8,0.589055,0,1.0,1.0,0.8,9,9
2,2,3,75,-1.6,0.402385,1,1.0,1.0,0.8,9,9
2,2,3,76,-0.2,0.414573,1,1.0,1.0,-1.6,9,9
2,2,3,77,0.8,0.542139,0,1.0,1.0,-0.2,9,9
2,2,3,78,-0.8,0.463961,1,1.0,1.0,0.8,9,9
2,2,3,79,0.2,0.768131,1,-1.0,1.0,-0.8,7,9
2,2,3,80,-0.8,0.514291,1,1.0,-1.0,0.2,9,7
2,2,3,81,1.6,0.558417,0,1.0,1.0,-0.8,9,9
2,2,3,82,0.8,0.648097,0,1.0,1.0,1.6,9,9
2,2,3,83,-0.2,0.419878,1,1.0,1.0,0.8,9,9
2,2,3,84,-0.2,0.448074,1,1.0,1.0,-0.2,9,9
2,2,3,85,1.6,0.494365,0,1.0,1.0,-0.2,9,9
2,2,3,86,-1.6,0.501666,1,1.0,1.0,1.6,9,9
2,2,3,87,-0.2,0.633253,0,-1.0,1.0,-1.6,9,9
2,2,3,88,0.2,0.89389,0,1.0,-1.0,-0.2,9,9
2,2,3,89,0.2,0.598732,0,1.0,1.0,0.2,7,9
2,2,3,90,-1.6,0.536783,1,1.0,1.0,0.2,9,7
2,2,3,91,-0.8,0.52489,1,1.0,1.0,-1.6,9,9
2,2,3,92,0.2,0.751099,0,1.0,1.0,-0.8,9,9
2,2,3,93,-0.8,0.353724,1,1.0,1.0,0.2,7,9
2,2,3,94,-0.8,0.52788,1,1.0,1.0,-0.8,9,7
2,2,3,95,-1.6,0.50867,1,1.0,1.0,-0.8,9,9
2,2,3,96,-0.8,0.400628,1,1.0,1.0,-1.6,9,9
2,2,3,97,0.2,0.686844,0,1.0,1.0,-0.8,6,9
2,2,3,98,1.6,0.515729,0,1.0,1.0,0.2,9,6
2,2,3,99,0.8,0.630406,0,1.0,1.0,1.6,7,9
2,2,3,100,-0.8,0.445842,1,1.0,1.0,0.8,9,7
2,2,3,101,-1.6,0.357323,1,1.0,1.0,-0.8,9,9
2,2,3,102,0.2,0.460767,1,-1.0,1.0,-1.6,1,9
2,2,3,104,0.2,0.437621,1,-1.0,0.0,-0.2,9,3
2,2,3,105,-0.2,0.433785,1,1.0,-1.0,0.2,9,9
2,2,3,106,-0.2,0.403833,1,1.0,1.0,-0.2,4,9
2,2,3,107,1.6,0.547598,0,1.0,1.0,-0.2,9,4
2,2,3,108,-0.2,0.493488,1,1.0,1.0,1.6,9,9
2,2,3,109,0.8,0.519662,0,1.0,1.0,-0.2,9,9
2,2,3,110,-0.8,0.567045,1,1.0,1.0,0.8,9,9
2,3,3,1,0.2,0.641392,1,-1.0,0.0,-100.0,9,-100
2,3,3,2,-0.2,0.442617,1,1.0,-1.0,0.2,9,9
2,3,3,3,0.8,0.444856,1,-1.0,1.0,-0.2,9,9
2,3,3,4,-0.8,0.42511,1,1.0,-1.0,0.8,9,9
2,3,3,5,-0.8,0.43441,1,1.0,1.0,-0.8,9,9
2,3,3,6,0.8,0.407141,1,-1.0,1.0,-0.8,9,9
2,3,3,7,-0.8,0.300541,1,1.0,-1.0,0.8,9,9
2,3,3,8,-0.8,0.413303,1,1.0,1.0,-0.8,9,9
2,3,3,9,-0.2,0.489862,1,1.0,1.0,-0.8,9,9
2,3,3,10,-0.2,0.549628,1,1.0,1.0,-0.2,9,9
2,3,3,11,-1.6,0.397588,1,1.0,1.0,-0.2,9,9
2,3,3,12,-0.8,0.393818,1,1.0,1.0,-1.6,9,9
2,3,3,13,0.8,0.604582,1,-1.0,1.0,-0.8,9,9
2,3,3,14,1.6,0.58415,0,1.0,-1.0,0.8,9,9
2,3,3,15,-0.2,0.498878,0,-1.0,1.0,1.6,3,9
2,3,3,16,0.8,0.512181,1,-1.0,-1.0,-0.2,9,3
2,3,3,17,1.6,0.642317,1,-1.0,-1.0,0.8,1,9
2,3,3,18,0.2,0.449052,1,-1.0,-1.0,1.6,9,1
2,3,3,19,-0.2,0.427932,1,1.0,-1.0,0.2,9,9
2,3,3,20,0.2,0.364491,1,-1.0,1.0,-0.2,9,9
2,3,3,21,0.2,0.472181,1,-1.0,-1.0,0.2,9,9
2,3,3,22,-0.8,0.338406,1,1.0,-1.0,0.2,9,9
2,3,3,23,0.2,0.381695,1,-1.0,1.0,-0.8,9,9
2,3,3,24,-0.8,0.34586,1,1.0,-1.0,0.2,9,9
2,3,3,25,-0.2,0.303633,1,1.0,1.0,-0.8,9,9
2,3,3,26,0.2,0.389338,1,-1.0,1.0,-0.2,9,9
2,3,3,27,0.8,0.569878,1,-1.0,-1.0,0.2,9,9
2,3,3,28,0.8,0.380088,1,-1.0,-1.0,0.8,9,9
2,3,3,29,0.2,0.320075,1,-1.0,-1.0,0.8,9,9
2,3,3,30,0.8,0.384885,1,-1.0,-1.0,0.2,1,9
2,3,3,31,1.6,0.478417,1,-1.0,-1.0,0.8,1,1
2,3,3,32,0.2,0.584519,1,-1.0,-1.0,1.6,9,1
2,3,3,33,-0.2,0.329162,1,1.0,-1.0,0.2,9,9
2,3,3,34,1.6,0.326689,1,-1.0,1.0,-0.2,3,9
2,3,3,35,0.2,0.445557,1,-1.0,-1.0,1.6,9,3
2,3,3,36,0.8,0.643157,0,1.0,-1.0,0.2,9,9
2,3,3,37,-0.8,0.559156,1,1.0,1.0,0.8,9,9
2,3,3,38,-0.8,0.38215,1,1.0,1.0,-0.8,9,9
2,3,3,39,-0.8,0.400547,1,1.0,1.0,-0.8,9,9
2,3,3,40,0.2,0.586411,0,1.0,1.0,-0.8,3,9
2,3,3,41,0.2,0.454323,1,-1.0,1.0,0.2,9,3
2,3,3,42,-0.2,0.392971,1,1.0,-1.0,0.2,9,9
2,3,3,43,0.8,0.807915,0,1.0,1.0,-0.2,4,9
2,3,3,44,-0.2,0.412018,1,1.0,1.0,0.8,9,4
2,3,3,45,0.8,0.461688,1,-1.0,1.0,-0.2,4,9
2,3,3,46,1.6,0.757132,0,1.0,-1.0,0.8,6,4
2,3,3,47,0.8,0.471078,1,-1.0,1.0,1.6,9,6
2,3,3,48,-1.6,0.324566,1,1.0,-1.0,0.8,9,9
2,3,3,49,1.6,0.622677,1,-1.0,1.0,-1.6,9,9
2,3,3,50,0.8,0.493585,1,-1.0,-1.0,1.6,9,9
2,3,3,51,0.8,0.444917,1,-1.0,-1.0,0.8,9,9
2,3,3,52,-1.6,0.458412,1,1.0,-1.0,0.8,9,9
2,3,3,53,1.6,0.41572,1,-1.0,1.0,-1.6,9,9
2,3,3,54,-0.2,0.513419,1,1.0,-1.0,1.6,9,9
2,3,3,55,-0.2,0.634131,1,1.0,1.0,-0.2,9,9
2,3,3,56,0.2,0.591649,1,-1.0,1.0,-0.2,9,9
2,3,3,57,0.2,0.621029,1,-1.0,-1.0,0.2,8,9
2,3,3,58,1.6,0.51342,1,-1.0,-1.0,0.2,2,8
2,3,3,59,0.8,0.534046,1,-1.0,-1.0,1.6,9,2
2,3,3,60,0.2,0.453918,1,-1.0,-1.0,0.8,9,9
2,3,3,61,0.8,0.818243,0,1.0,-1.0,0.2,3,9
2,3,3,62,-0.2,0.441,1,1.0,1.0,0.8,9,3
2,3,3,63,-1.6,0.381191,1,1.0,1.0,-0.2,9,9
2,3,3,64,-0.2,0.351193,1,1.0,1.0,-1.6,9,9
2,3,3,65,-0.2,0.577098,1,1.0,1.0,-0.2,9,9
2,3,3,66,-0.2,0.443598,1,1.0,1.0,-0.2,9,9
2,3,3,67,0.2,0.616232,1,-1.0,1.0,-0.2,9,9
2,3,3,68,0.8,0.533607,1,-1.0,-1.0,0.2,9,9
2,3,3,69,-0.2,0.622444,1,1.0,-1.0,0.8,9,9
2,3,3,71,-0.2,0.380627,1,1.0,0.0,1.6,9,9
2,3,3,72,0.8,0.411475,1,-1.0,1.0,-0.2,9,9
2,3,3,73,1.6,0.335644,1,-1.0,-1.0,0.8,1,9
2,3,3,74,0.2,0.526455,1,-1.0,-1.0,1.6,9,1
2,3,3,75,1.6,0.535251,0,1.0,-1.0,0.2,9,9
2,3,3,76,-1.6,0.409444,1,1.0,1.0,1.6,9,9
2,3,3,77,0.2,0.691465,1,-1.0,1.0,-1.6,2,9
2,3,3,78,-1.6,0.436908,1,1.0,-1.0,0.2,9,2
2,3,3,79,-0.8,0.347,1,1.0,1.0,-1.6,9,9
2,3,3,80,-0.2,0.37444,1,1.0,1.0,-0.8,9,9
2,3,3,81,-0.8,0.365869,1,1.0,1.0,-0.2,9,9
2,3,3,82,0.2,0.406542,1,-1.0,1.0,-0.8,9,9
2,3,3,83,-0.2,0.432883,1,1.0,-1.0,0.2,9,9
2,3,3,84,0.8,0.584318,0,1.0,1.0,-0.2,9,9
2,3,3,85,0.2,0.306999,1,-1.0,1.0,0.8,1,9
2,3,3,86,-0.8,0.397256,1,1.0,-1.0,0.2,9,1
2,3,3,87,-1.6,0.336788,1,1.0,1.0,-0.8,9,9
2,3,3,88,-1.6,0.315527,1,1.0,1.0,-1.6,9,9
2,3,3,89,-0.8,0.36146,1,1.0,1.0,-1.6,9,9
2,3,3,90,0.2,0.486433,1,-1.0,1.0,-0.8,9,9
2,3,3,91,0.2,0.454542,1,-1.0,-1.0,0.2,9,9
2,3,3,92,-0.8,0.419821,1,1.0,-1.0,0.2,9,9
2,3,3,93,-0.8,0.392852,1,1.0,1.0,-0.8,9,9
2,3,3,94,-0.2,0.583594,0,-1.0,1.0,-0.8,7,9
2,3,3,95,-1.6,0.49425,1,1.0,-1.0,-0.2,9,7
2,3,3,96,-0.2,0.399135,1,1.0,1.0,-1.6,9,9
2,3,3,97,-0.2,0.326648,1,1.0,1.0,-0.2,9,9
2,3,3,98,0.8,0.613392,0,1.0,1.0,-0.2,9,9
2,3,3,99,-0.8,0.390948,1,1.0,1.0,0.8,9,9
2,3,3,100,0.8,0.524922,0,1.0,1.0,-0.8,9,9
2,3,3,101,-0.8,0.445645,1,1.0,1.0,0.8,9,9
2,3,3,102,-1.6,0.444379,1,1.0,1.0,-0.8,9,9
2,3,3,103,1.6,0.562626,0,1.0,1.0,-1.6,9,9
2,3,3,104,0.2,0.551313,1,-1.0,1.0,1.6,9,9
2,3,3,105,-0.2,0.405447,1,1.0,-1.0,0.2,9,9
2,3,3,106,-1.6,0.373648,1,1.0,1.0,-0.2,9,9
2,3,3,107,0.2,0.300973,1,-1.0,1.0,-1.6,9,9
2,3,3,108,-1.6,0.308979,1,1.0,-1.0,0.2,9,9
2,3,3,109,-0.8,0.576606,1,1.0,1.0,-1.6,9,9
2,3,3,110,-0.8,0.45859,1,1.0,1.0,-0.8,9,9
3,1,1,1,0.8,0.62601,0,1.0,0.0,-100.0,3,-100
3,1,1,2,-1.6,0.427192,1,1.0,1.0,0.8,9,3
3,1,1,3,1.6,0.402865,0,1.0,1.0,-1.6,9,9
3,1,1,4,0.2,0.598191,1,-1.0,1.0,1.6,9,9
3,1,1,5,-0.2,0.909644,0,-1.0,-1.0,0.2,2,9
3,1,1,6,0.8,0.596294,0,1.0,-1.0,-0.2,2,2
3,1,1,7,1.6,0.3979,0,1.0,1.0,0.8,9,2
3,1,1,8,-0.2,0.820625,1,1.0,1.0,1.6,2,9
3,1,1,9,0.8,0.486986,0,1.0,1.0,-0.2,9,2
3,1,1,10,0.2,0.815633,1,-1.0,1.0,0.8,1,9
3,1,1,11,0.8,0.421666,1,-1.0,-1.0,0.2,1,1
3,1,1,12,0.2,0.394492,0,1.0,-1.0,0.8,1,1
3,1,1,13,-0.2,0.390521,1,1.0,1.0,0.2,9,1
3,1,1,14,0.8,0.411509,0,1.0,1.0,-0.2,9,9
3,1,1,15,-0.8,0.633551,1,1.0,1.0,0.8,8,9
3,1,1,16,0.8,0.527694,0,1.0,1.0,-0.8,7,8
3,1,1,17,1.6,0.453886,0,1.0,1.0,0.8,9,7
3,1,1,18,-0.8,0.673854,1,1.0,1.0,1.6,3,9
3,1,1,19,0.8,0.432623,0,1.0,1.0,-0.8,6,3
3,1,1,20,0.8,0.425494,0,1.0,1.0,0.8,8,6
3,1,1,21,-0.2,0.518969,0,-1.0,1.0,0.8,1,8
3,1,1,22,-0.2,0.423195,1,1.0,-1.0,-0.2,7,1
3,1,1,23,1.6,0.476669,0,1.0,1.0,-0.2,9,7
3,1,1,24,1.6,0.466156,0,1.0,1.0,1.6,9,9
3,1,1,25,0.8,0.609684,0,1.0,1.0,1.6,8,9
3,1,1,26,-0.2,0.391766,1,1.0,1.0,0.8,3,8
3,1,1,27,-1.6,0.424904,1,1.0,1.0,-0.2,9,3
3,1,1,28,0.2,0.551361,1,-1.0,1.0,-1.6,2,9
3,1,1,29,0.2,0.697462,1,-1.0,-1.0,0.2,1,2
3,1,1,30,-0.2,0.403718,1,1.0,-1.0,0.2,4,1
3,1,1,31,0.8,0.430402,0,1.0,1.0,-0.2,1,4
3,1,1,32,0.2,0.408364,1,-1.0,1.0,0.8,1,1
3,1,1,33,0.2,0.429176,1,-1.0,-1.0,0.2,5,1
3,1,1,34,-0.8,0.456835,1,1.0,-1.0,0.2,3,5
3,1,1,35,-1.6,0.376837,1,1.0,1.0,-0.8,9,3
3,1,1,36,-0.8,0.501437,1,1.0,1.0,-1.6,9,9
3,1,1,37,-0.8,0.416435,1,1.0,1.0,-0.8,9,9
3,1,1,38,-0.2,0.387736,1,1.0,1.0,-0.8,1,9
3,1,1,39,0.8,0.51719,0,1.0,1.0,-0.2,9,1
3,1,1,40,-1.6,0.49667,1,1.0,1.0,0.8,5,9
3,1,1,41,-1.6,0.440897,1,1.0,1.0,-1.6,9,5
3,1,1,42,0.2,0.652848,0,1.0,1.0,-1.6,1,9
3,1,1,43,0.2,0.329171,1,-1.0,1.0,0.2,4,1
3,1,1,44,-1.6,0.452659,1,1.0,-1.0,0.2,7,4
3,1,1,45,0.2,0.459334,0,1.0,1.0,-1.6,9,7
3,1,1,46,0.8,0.39822,0,1.0,1.0,0.2,9,9
3,1,1,47,0.8,0.756924,0,1.0,1.0,0.8,5,9
3,1,1,48,-0.8,0.40652,1,1.0,1.0,0.8,8,5
3,1,1,49,-0.8,0.427013,1,1.0,1.0,-0.8,9,8
3,1,1,50,-0.8,0.466586,1,1.0,1.0,-0.8,9,9
3,1,1,52,-0.8,0.329588,1,1.0,0.0,-0.2,9,5
3,1,1,53,-0.8,0.353566,1,1.0,1.0,-0.8,9,9
3,1,1,54,1.6,0.373799,0,1.0,1.0,-0.8,9,9
3,1,1,55,-0.2,0.403328,0,-1.0,1.0,1.6,4,9
3,1,1,56,-0.2,0.967201,0,-1.0,-1.0,-0.2,2,4
3,1,1,57,0.2,0.789344,1,-1.0,-1.0,-0.2,1,2
3,1,1,58,-1.6,0.388249,1,1.0,-1.0,0.2,9,1
3,1,1,59,-0.8,0.418304,1,1.0,1.0,-1.6,9,9
3,1,1,60,0.8,0.503724,0,1.0,1.0,-0.8,9,9
3,1,1,61,0.2,0.646546,1,-1.0,1.0,0.8,2,9
3,1,1,62,-0.8,0.678144,1,1.0,-1.0,0.2,2,2
3,1,1,63,0.8,0.553777,0,1.0,1.0,-0.8,1,2
3,1,1,64,-0.2,0.640447,1,1.0,1.0,0.8,2,1
3,1,1,65,0.2,0.452243,1,-1.0,1.0,-0.2,2,2
3,1,1,66,0.2,0.382044,0,1.0,-1.0,0.2,8,2
3,1,1,67,-0.8,0.447978,1,1.0,1.0,0.2,2,8
3,1,1,68,-1.6,0.436682,1,1.0,1.0,-0.8,9,2
3,1,1,69,-0.2,0.369494,1,1.0,1.0,-1.6,6,9
3,1,1,70,-1.6,0.525609,1,1.0,1.0,-0.2,6,6
3,1,1,71,-0.2,0.721507,0,-1.0,1.0,-1.6,1,6
3,1,1,72,0.2,0.542832,0,1.0,-1.0,-0.2,2,1
3,1,1,73,0.2,0.718908,0,1.0,1.0,0.2,2,2
3,1,1,74,-1.6,0.581578,1,1.0,1.0,0.2,9,2
3,1,1,75,0.8,0.428925,0,1.0,1.0,-1.6,9,9
3,1,1,76,-0.8,0.410565,1,1.0,1.0,0.8,9,9
3,1,1,78,0.2,0.374769,1,-1.0,0.0,0.2,2,2
3,1,1,79,0.8,0.523576,0,1.0,-1.0,0.2,9,2
3,1,1,80,-1.6,0.382249,1,1.0,1.0,0.8,6,9
3,1,1,81,0.8,0.591902,0,1.0,1.0,-1.6,2,6
3,1,1,82,-0.2,0.513314,1,1.0,1.0,0.8,2,2
3,1,1,83,-0.2,0.607999,0,-1.0,1.0,-0.2,1,2
3,1,1,84,-0.8,0.665656,1,1.0,-1.0,-0.2,1,1
3,1,1,85,0.2,0.400228,1,-1.0,1.0,-0.8,1,1
3,1,1,86,-0.8,0.432415,1,1.0,-1.0,0.2,1,1
3,1,1,87,-0.2,0.640565,0,-1.0,1.0,-0.8,1,1
3,1,1,88,-0.2,0.578492,1,1.0,-1.0,-0.2,1,1
3,1,1,89,0.2,0.819925,1,-1.0,1.0,-0.2,1,1
3,1,1,90,0.8,0.620662,1,-1.0,-1.0,0.2,1,1
3,1,1,91,1.6,0.833673,0,1.0,-1.0,0.8,1,1
3,1,1,92,1.6,0.609317,0,1.0,1.0,1.6,9,1
3,1,1,93,-0.2,0.591242,0,-1.0,1.0,1.6,6,9
3,1,1,94,-0.8,0.364584,1,1.0,-1.0,-0.2,7,6
3,1,1,95,1.6,0.449685,0,1.0,1.0,-0.8,2,7
3,1,1,96,-0.8,0.393617,1,1.0,1.0,1.6,6,2
3,1,1,97,0.2,0.417914,1,-1.0,1.0,-0.8,2,6
3,1,1,98,1.6,0.478192,0,1.0,-1.0,0.2,3,2
3,1,1,99,-1.6,0.398182,1,1.0,1.0,1.6,9,3
3,1,1,100,-0.8,0.444954,1,1.0,1.0,-1.6,7,9
3,1,1,101,-0.2,0.547178,0,-1.0,1.0,-0.8,8,7
3,1,1,102,0.2,0.586538,0,1.0,-1.0,-0.2,6,8
3,1,1,103,1.6,0.374094,0,1.0,1.0,0.2,2,6
3,1,1,104,-0.8,0.390875,1,1.0,1.0,1.6,7,2
3,1,1,105,1.6,0.434885,0,1.0,1.0,-0.8,2,7
3,1,1,106,-0.2,0.765067,1,1.0,1.0,1.6,2,2
3,1,1,107,0.8,0.528769,0,1.0,1.0,-0.2,7,2
3,1,1,108,0.2,0.714952,0,1.0,1.0,0.8,6,7
3,1,1,109,-0.2,0.682186,1,1.0,1.0,0.2,2,6
3,1,1,110,-0.2,0.500241,1,1.0,1.0,-0.2,3,2
3,2,1,1,0.2,0.756637,1,-1.0,0.0,-100.0,2,-100
3,2,1,2,0.8,0.362882,0,1.0,-1.0,0.2,7,2
3,2,1,3,0.2,0.502846,1,-1.0,1.0,0.8,6,7
3,2,1,4,-0.2,0.544286,1,1.0,-1.0,0.2,6,6
3,2,1,5,0.2,0.654961,1,-1.0,1.0,-0.2,5,6
3,2,1,6,-0.8,0.406596,1,1.0,-1.0,0.2,8,5
3,2,1,7,0.2,0.595518,0,1.0,1.0,-0.8,3,8
3,2,1,8,-0.2,0.373347,1,1.0,1.0,0.2,9,3
3,2,1,9,-1.6,0.431447,1,1.0,1.0,-0.2,9,9
3,2,1,10,-0.2,0.63915,1,1.0,1.0,-1.6,3,9
3,2,1,11,-0.2,0.34789,1,1.0,1.0,-0.2,8,3
3,2,1,12,-1.6,0.375947,1,1.0,1.0,-0.2,9,8
3,2,1,13,-0.8,0.417458,1,1.0,1.0,-1.6,9,9
3,2,1,14,0.8,0.386829,0,1.0,1.0,-0.8,9,9
3,2,1,15,0.2,0.590281,1,-1.0,1.0,0.8,3,9
3,2,1,16,0.8,0.507804,0,1.0,-1.0,0.2,9,3
3,2,1,17,-0.8,0.515941,0,-1.0,1.0,0.8,9,9
3,2,1,18,0.8,0.450667,0,1.0,-1.0,-0.8,9,9
3,2,1,19,-0.8,0.847374,1,1.0,1.0,0.8,9,9
3,2,1,20,1.6,0.536801,0,1.0,1.0,-0.8,9,9
3,2,1,21,-0.2,0.572316,0,-1.0,1.0,1.6,3,9
3,2,1,22,-0.8,0.381075,1,1.0,-1.0,-0.2,8,3
3,2,1,23,0.8,0.498601,0,1.0,1.0,-0.8,7,8
3,2,1,24,-0.2,0.568982,0,-1.0,1.0,0.8,1,7
3,2,1,25,-0.2,0.377699,0,-1.0,-1.0,-0.2,1,1
3,2,1,26,0.2,0.439603,1,-1.0,-1.0,-0.2,1,1
3,2,1,27,0.8,0.423869,0,1.0,-1.0,0.2,8,1
3,2,1,28,-0.2,0.766642,0,-1.0,1.0,0.8,1,8
3,2,1,29,-1.6,0.419161,1,1.0,-1.0,-0.2,7,1
3,2,1,30,-0.8,0.414888,1,1.0,1.0,-1.6,8,7
3,2,1,31,0.2,0.674993,1,-1.0,1.0,-0.8,1,8
3,2,1,32,1.6,0.441199,0,1.0,-1.0,0.2,9,1
3,2,1,34,1.6,0.370249,0,1.0,0.0,0.2,9,1
3,2,1,35,0.2,0.578838,1,-1.0,1.0,1.6,1,9
3,2,1,36,1.6,0.403628,0,1.0,-1.0,0.2,9,1
3,2,1,37,0.2,0.609977,0,1.0,1.0,1.6,2,9
3,2,1,38,-0.8,0.609895,1,1.0,1.0,0.2,6,2
3,2,1,39,-0.2,0.699501,1,1.0,1.0,-0.8,1,6
3,2,1,40,0.2,0.492076,1,-1.0,1.0,-0.2,1,1
3,2,1,41,0.8,0.548796,0,1.0,-1.0,0.2,7,1
3,2,1,42,0.2,0.416315,0,1.0,1.0,0.8,7,7
3,2,1,43,1.6,0.509133,0,1.0,1.0,0.2,9,7
3,2,1,44,-1.6,0.423212,1,1.0,1.0,1.6,9,9
3,2,1,45,-0.2,0.428052,1,1.0,1.0,-1.6,9,9
3,2,1,46,-0.2,0.413327,1,1.0,1.0,-0.2,8,9
3,2,1,47,-1.6,0.468181,1,1.0,1.0,-0.2,9,8
3,2,1,48,-0.8,0.666908,1,1.0,1.0,-1.6,8,9
3,2,1,49,-0.8,0.394488,1,1.0,1.0,-0.8,9,8
3,2,1,50,0.2,0.855975,1,-1.0,1.0,-0.8,6,9
3,2,1,51,-0.2,0.54934,1,1.0,-1.0,0.2,3,6
3,2,1,52,0.2,0.540952,0,1.0,1.0,-0.2,2,3
3,2,1,53,-0.2,0.578823,1,1.0,1.0,0.2,1,2
3,2,1,54,-0.8,0.397826,1,1.0,1.0,-0.2,1,1
3,2,1,55,0.2,0.405856,1,-1.0,1.0,-0.8,1,1
3,2,1,56,-1.6,0.404548,1,1.0,-1.0,0.2,8,1
3,2,1,57,0.2,0.672719,1,-1.0,1.0,-1.6,1,8
3,2,1,58,1.6,0.56153,0,1.0,-1.0,0.2,3,1
3,2,1,59,-0.2,0.539613,1,1.0,1.0,1.6,1,3
3,2,1,60,-0.2,0.522948,1,1.0,1.0,-0.2,2,1
3,2,1,61,1.6,0.48212,0,1.0,1.0,-0.2,9,2
3,2,1,62,-0.8,0.400573,1,1.0,1.0,1.6,4,9
3,2,1,63,0.8,0.442212,0,1.0,1.0,-0.8,3,4
3,2,1,64,-0.8,0.502305,1,1.0,1.0,0.8,3,3
3,2,1,65,0.8,0.46314,1,-1.0,1.0,-0.8,3,3
3,2,1,66,-0.8,0.406382,1,1.0,-1.0,0.8,2,3
3,2,1,67,0.8,0.663128,1,-1.0,1.0,-0.8,2,2
3,2,1,68,0.8,0.658555,1,-1.0,-1.0,0.8,2,2
3,2,1,69,-0.8,0.46142,1,1.0,-1.0,0.8,2,2
3,2,1,70,1.6,0.476423,0,1.0,1.0,-0.8,3,2
3,2,1,71,-0.8,0.43696,1,1.0,1.0,1.6,2,3
3,2,1,72,0.2,0.407023,1,-1.0,1.0,-0.8,2,2
3,2,1,73,0.8,0.495292,0,1.0,-1.0,0.2,2,2
3,2,1,74,-0.2,0.486522,1,1.0,1.0,0.8,7,2
3,2,1,75,1.6,0.426219,0,1.0,1.0,-0.2,7,7
3,2,1,76,-1.6,0.418769,1,1.0,1.0,1.6,7,7
3,2,1,77,-0.8,0.449796,1,1.0,1.0,-1.6,7,7
3,2,1,78,0.8,0.501794,0,1.0,1.0,-0.8,9,7
3,2,1,79,-1.6,0.399847,1,1.0,1.0,0.8,7,9
3,2,1,80,0.2,0.605919,0,1.0,1.0,-1.6,3,7
3,2,1,81,0.8,0.513278,1,-1.0,1.0,0.2,3,3
3,2,1,82,-1.6,0.41757,1,1.0,-1.0,0.8,8,3
3,2,1,83,-0.2,0.427603,1,1.0,1.0,-1.6,5,8
3,2,1,84,-0.2,0.581206,1,1.0,1.0,-0.2,3,5
3,2,1,85,0.2,0.724642,1,-1.0,1.0,-0.2,2,3
3,2,1,86,-0.2,0.418199,1,1.0,-1.0,0.2,6,2
3,2,1,87,0.8,0.477599,0,1.0,1.0,-0.2,7,6
3,2,1,88,-0.8,0.628795,1,1.0,1.0,0.8,4,7
3,2,1,89,0.8,0.477043,1,-1.0,1.0,-0.8,2,4
3,2,1,90,1.6,0.545958,0,1.0,-1.0,0.8,9,2
3,2,1,92,-1.6,0.550621,1,1.0,0.0,-0.8,5,4
3,2,1,93,-0.2,0.427582,1,1.0,1.0,-1.6,5,5
3,2,1,94,-1.6,0.431012,1,1.0,1.0,-0.2,9,5
3,2,1,95,0.8,0.400407,0,1.0,1.0,-1.6,9,9
3,2,1,96,1.6,0.396516,0,1.0,1.0,0.8,9,9
3,2,1,97,0.2,0.509867,0,1.0,1.0,1.6,9,9
3,2,1,98,-0.8,0.557368,1,1.0,1.0,0.2,9,9
3,2,1,99,0.2,0.736711,1,-1.0,1.0,-0.8,9,9
3,2,1,100,1.6,0.370975,0,1.0,-1.0,0.2,9,9
3,2,1,101,0.8,0.462389,0,1.0,1.0,1.6,9,9
3,2,1,102,0.2,0.449178,1,-1.0,1.0,0.8,5,9
3,2,1,103,0.2,0.651803,1,-1.0,-1.0,0.2,3,5
3,2,1,104,0.8,0.392789,0,1.0,-1.0,0.2,9,3
3,2,1,105,-0.2,0.517444,1,1.0,1.0,0.8,9,9
3,2,1,106,-1.6,0.445635,1,1.0,1.0,-0.2,9,9
3,2,1,107,-0.8,0.469699,1,1.0,1.0,-1.6,9,9
3,2,1,108,-0.2,0.447796,1,1.0,1.0,-0.8,3,9
3,2,1,110,0.8,0.414044,0,1.0,0.0,-0.2,8,9
3,3,1,2,-0.2,0.568785,1,1.0,0.0,0.2,7,1
3,3,1,3,-0.2,0.392129,1,1.0,1.0,-0.2,3,7
3,3,1,4,-0.2,0.399603,1,1.0,1.0,-0.2,3,3
3,3,1,5,-0.2,0.538562,1,1.0,1.0,-0.2,2,3
3,3,1,6,-1.6,0.525728,1,1.0,1.0,-0.2,2,2
3,3,1,7,-0.2,0.40453,1,1.0,1.0,-1.6,2,2
3,3,1,8,-1.6,0.557358,1,1.0,1.0,-0.2,8,2
3,3,1,9,-1.6,0.43805,1,1.0,1.0,-1.6,9,8
3,3,1,10,0.2,0.578368,1,-1.0,1.0,-1.6,3,9
3,3,1,11,0.2,0.409068,1,-1.0,-1.0,0.2,3,3
3,3,1,12,0.8,0.486536,0,1.0,-1.0,0.2,8,3
3,3,1,13,-0.8,0.52194,1,1.0,1.0,0.8,6,8
3,3,1,14,0.8,0.504273,0,1.0,1.0,-0.8,9,6
3,3,1,15,0.2,0.687187,0,1.0,1.0,0.8,6,9
3,3,1,16,-0.2,0.561621,0,-1.0,1.0,0.2,4,6
3,3,1,17,1.6,0.580472,0,1.0,-1.0,-0.2,9,4
3,3,1,18,0.8,0.73968,0,1.0,1.0,1.6,1,9
3,3,1,19,-0.2,0.541879,1,1.0,1.0,0.8,1,1
3,3,1,20,0.8,0.437579,0,1.0,1.0,-0.2,8,1
3,3,1,21,0.2,0.463588,0,1.0,1.0,0.8,8,8
3,3,1,22,1.6,0.447676,0,1.0,1.0,0.2,9,8
3,3,1,23,-1.6,0.510444,1,1.0,1.0,1.6,9,9
3,3,1,24,0.8,0.525265,0,1.0,1.0,-1.6,5,9
3,3,1,25,0.2,0.592011,1,-1.0,1.0,0.8,3,5
3,3,1,26,-1.6,0.464381,1,1.0,-1.0,0.2,9,3
3,3,1,27,1.6,0.437666,0,1.0,1.0,-1.6,9,9
3,3,1,28,0.8,0.490956,0,1.0,1.0,1.6,6,9
3,3,1,29,-1.6,0.490322,1,1.0,1.0,0.8,3,6
3,3,1,30,-0.8,0.42308,1,1.0,1.0,-1.6,9,3
3,3,1,31,-0.2,0.506459,0,-1.0,1.0,-0.8,1,9
3,3,1,32,0.2,0.547924,1,-1.0,-1.0,-0.2,1,1
3,3,1,33,1.6,0.528054,0,1.0,-1.0,0.2,7,1
3,3,1,34,-0.2,0.638985,1,1.0,1.0,1.6,2,7
3,3,1,35,0.2,0.507665,0,1.0,1.0,-0.2,5,2
3,3,1,36,1.6,0.533079,0,1.0,1.0,0.2,9,5
3,3,1,37,-0.2,0.45527,1,1.0,1.0,1.6,2,9
3,3,1,38,0.2,0.690686,0,1.0,1.0,-0.2,1,2
3,3,1,39,1.6,0.500341,0,1.0,1.0,0.2,9,1
3,3,1,40,0.8,0.537211,0,1.0,1.0,1.6,9,9
3,3,1,41,-1.6,0.387059,1,1.0,1.0,0.8,9,9
3,3,1,42,-0.8,0.580359,1,1.0,1.0,-1.6,2,9
3,3,1,43,0.2,0.601149,1,-1.0,1.0,-0.8,2,2
3,3,1,44,0.8,0.566643,1,-1.0,-1.0,0.2,2,2
3,3,1,45,-0.8,0.488098,1,1.0,-1.0,0.8,9,2
3,3,1,46,-0.8,0.371499,1,1.0,1.0,-0.8,9,9
3,3,1,47,-0.8,0.413788,1,1.0,1.0,-0.8,9,9
3,3,1,48,-0.2,0.434409,1,1.0,1.0,-0.8,9,9
3,3,1,49,-0.8,0.441108,1,1.0,1.0,-0.2,8,9
3,3,1,50,0.8,0.518524,0,1.0,1.0,-0.8,3,8
3,3,1,51,-1.6,0.464086,1,1.0,1.0,0.8,8,3
3,3,1,52,1.6,0.544122,0,1.0,1.0,-1.6,9,8
3,3,1,53,-1.6,0.38164,1,1.0,1.0,1.6,9,9
3,3,1,54,0.8,0.422928,0,1.0,1.0,-1.6,9,9
3,3,1,55,0.8,0.550558,0,1.0,1.0,0.8,9,9
3,3,1,56,-0.2,0.574465,0,-1.0,1.0,0.8,9,9
3,3,1,57,0.2,0.471424,0,1.0,-1.0,-0.2,9,9
3,3,1,58,-0.8,0.463434,0,-1.0,1.0,0.2,3,9
3,3,1,59,0.8,0.51048,0,1.0,-1.0,-0.8,8,3
3,3,1,60,0.2,0.611104,0,1.0,1.0,0.8,4,8
3,3,1,61,0.2,0.54936,0,1.0,1.0,0.2,3,4
3,3,1,62,0.8,0.487882,0,1.0,1.0,0.2,3,3
3,3,1,63,-0.2,0.549376,1,1.0,1.0,0.8,8,3
3,3,1,64,1.6,0.741542,0,1.0,1.0,-0.2,8,8
3,3,1,65,-0.2,0.538324,1,1.0,1.0,1.6,3,8
3,3,1,66,0.2,0.6157,0,1.0,1.0,-0.2,3,3
3,3,1,67,0.2,0.518565,1,-1.0,1.0,0.2,3,3
3,3,1,68,0.2,0.470087,1,-1.0,-1.0,0.2,3,3
3,3,1,69,-0.2,0.46945,1,1.0,-1.0,0.2,2,3
3,3,1,70,0.8,0.604153,0,1.0,1.0,-0.2,7,2
3,3,1,71,-0.2,0.558932,0,-1.0,1.0,0.8,3,7
3,3,1,72,1.6,0.564949,0,1.0,-1.0,-0.2,7,3
3,3,1,73,-1.6,0.434427,1,1.0,1.0,1.6,8,7
3,3,1,74,1.6,0.616586,0,1.0,1.0,-1.6,7,8
3,3,1,75,0.8,0.488813,0,1.0,1.0,1.6,6,7
3,3,1,76,0.2,0.494588,1,-1.0,1.0,0.8,2,6
3,3,1,77,-1.6,0.439572,1,1.0,-1.0,0.2,2,2
3,3,1,78,0.8,0.589647,0,1.0,1.0,-1.6,1,2
3,3,1,79,0.8,0.483249,0,1.0,1.0,0.8,3,1
3,3,1,80,-0.2,0.521085,1,1.0,1.0,0.8,2,3
3,3,1,81,-0.8,0.455635,1,1.0,1.0,-0.2,2,2
3,3,1,82,-0.8,0.429365,1,1.0,1.0,-0.8,2,2
3,3,1,83,0.2,0.476349,1,-1.0,1.0,-0.8,2,2
3,3,1,84,0.2,0.490242,1,-1.0,-1.0,0.2,2,2
3,3,1,85,0.8,0.555007,0,1.0,-1.0,0.2,2,2
3,3,1,86,-0.8,0.402918,1,1.0,1.0,0.8,2,2
3,3,1,87,-0.2,0.509131,1,1.0,1.0,-0.8,2,2
3,3,1,88,-0.2,0.499978,1,1.0,1.0,-0.2,2,2
3,3,1,89,-0.8,0.417348,1,1.0,1.0,-0.2,8,2
3,3,1,90,0.8,0.458111,1,-1.0,1.0,-0.8,4,8
3,3,1,91,0.8,0.457826,1,-1.0,-1.0,0.8,2,4
3,3,1,92,-0.2,0.485725,1,1.0,-1.0,0.8,2,2
3,3,1,93,-0.8,0.468032,1,1.0,1.0,-0.2,2,2
3,3,1,94,-0.2,0.475176,1,1.0,1.0,-0.8,4,2
3,3,1,95,-0.8,0.638988,1,1.0,1.0,-0.2,1,4
3,3,1,96,-0.8,0.465499,1,1.0,1.0,-0.8,1,1
3,3,1,97,-0.2,0.50631,1,1.0,1.0,-0.8,3,1
3,3,1,98,-0.8,0.433898,1,1.0,1.0,-0.2,3,3
3,3,1,99,-0.8,0.41994,1,1.0,1.0,-0.8,3,3
3,3,1,100,0.2,0.576158,1,-1.0,1.0,-0.8,2,3
3,3,1,101,1.6,0.680197,0,1.0,-1.0,0.2,8,2
3,3,1,102,-0.8,0.539599,1,1.0,1.0,1.6,2,8
3,3,1,103,1.6,0.529081,0,1.0,1.0,-0.8,9,2
3,3,1,104,0.2,0.517905,0,1.0,1.0,1.6,9,9
3,3,1,105,-0.8,0.39862,1,1.0,1.0,0.2,2,9
3,3,1,106,0.2,0.486108,0,1.0,1.0,-0.8,8,2
3,3,1,107,0.2,0.501413,0,1.0,1.0,0.2,2,8
3,3,1,108,-0.8,0.493516,1,1.0,1.0,0.2,9,2
3,3,1,109,-0.2,0.691563,1,1.0,1.0,-0.8,2,9
3,3,1,110,-1.6,0.444442,1,1.0,1.0,-0.2,8,2
3,1,2,2,0.8,0.599252,0,1.0,0.0,0.8,4,1
3,1,2,3,0.2,0.621233,0,1.0,1.0,0.8,6,4
3,1,2,4,1.6,0.446652,0,1.0,1.0,0.2,9,6
3,1,2,5,0.2,0.520363,1,-1.0,1.0,1.6,7,9
3,1,2,6,0.2,0.405471,1,-1.0,-1.0,0.2,8,7
3,1,2,7,-0.2,1.109651,0,-1.0,-1.0,0.2,5,8
3,1,2,8,0.2,1.104972,1,-1.0,-1.0,-0.2,4,5
3,1,2,9,-0.2,0.430618,1,1.0,-1.0,0.2,4,4
3,1,2,10,-0.2,0.532625,1,1.0,1.0,-0.2,4,4
3,1,2,11,0.2,0.613987,1,-1.0,1.0,-0.2,3,4
3,1,2,12,0.8,0.425499,0,1.0,-1.0,0.2,9,3
3,1,2,13,1.6,0.414965,0,1.0,1.0,0.8,9,9
3,1,2,14,0.8,0.416318,0,1.0,1.0,1.6,9,9
3,1,2,15,0.2,0.403759,0,1.0,1.0,0.8,3,9
3,1,2,16,0.2,0.43594,1,-1.0,1.0,0.2,4,3
3,1,2,17,-0.8,0.427895,1,1.0,-1.0,0.2,3,4
3,1,2,18,-0.8,0.558026,1,1.0,1.0,-0.8,7,3
3,1,2,19,0.8,0.376116,0,1.0,1.0,-0.8,8,7
3,1,2,20,1.6,0.408062,0,1.0,1.0,0.8,9,8
3,1,2,21,0.2,0.662292,1,-1.0,1.0,1.6,6,9
3,1,2,22,1.6,0.393155,0,1.0,-1.0,0.2,9,6
3,1,2,23,-0.8,0.391211,1,1.0,1.0,1.6,9,9
3,1,2,24,0.8,0.397985,0,1.0,1.0,-0.8,9,9
3,1,2,25,-0.2,0.377982,1,1.0,1.0,0.8,9,9
3,1,2,26,-1.6,0.428075,1,1.0,1.0,-0.2,9,9
3,1,2,27,0.8,0.39956,0,1.0,1.0,-1.6,9,9
3,1,2,28,-0.2,0.422929,1,1.0,1.0,0.8,9,9
3,1,2,29,-0.8,0.432499,1,1.0,1.0,-0.2,9,9
3,1,2,30,1.6,0.523936,0,1.0,1.0,-0.8,9,9
3,1,2,31,-0.2,0.539243,0,-1.0,1.0,1.6,8,9
3,1,2,32,0.2,0.514705,0,1.0,-1.0,-0.2,9,8
3,1,2,33,-0.8,0.366154,1,1.0,1.0,0.2,9,9
3,1,2,34,0.2,0.503772,0,1.0,1.0,-0.8,8,9
3,1,2,35,-0.2,0.61976,1,1.0,1.0,0.2,9,8
3,1,2,36,0.2,0.646416,0,1.0,1.0,-0.2,8,9
3,1,2,37,-0.2,0.507358,0,-1.0,1.0,0.2,9,8
3,1,2,38,-0.2,0.393404,1,1.0,-1.0,-0.2,9,9
3,1,2,39,-0.2,0.686221,1,1.0,1.0,-0.2,3,9
3,1,2,40,0.8,0.617642,0,1.0,1.0,-0.2,8,3
3,1,2,41,-0.8,0.52901,1,1.0,1.0,0.8,5,8
3,1,2,42,1.6,0.442553,0,1.0,1.0,-0.8,9,5
3,1,2,43,1.6,0.535177,0,1.0,1.0,1.6,9,9
3,1,2,44,-0.2,0.444031,0,-1.0,1.0,1.6,9,9
3,1,2,45,-0.8,0.767305,0,-1.0,-1.0,-0.2,6,9
3,1,2,46,-0.8,0.655482,0,-1.0,-1.0,-0.8,3,6
3,1,2,47,-0.8,0.526229,1,1.0,-1.0,-0.8,5,3
3,1,2,48,-0.8,0.405083,1,1.0,1.0,-0.8,5,5
3,1,2,49,-0.2,0.468417,1,1.0,1.0,-0.8,5,5
3,1,2,50,0.8,0.532493,0,1.0,1.0,-0.2,7,5
3,1,2,51,0.2,0.555995,0,1.0,1.0,0.8,6,7
3,1,2,52,-0.8,0.517313,1,1.0,1.0,0.2,6,6
3,1,2,53,0.8,0.501477,0,1.0,1.0,-0.8,8,6
3,1,2,54,1.6,0.430235,0,1.0,1.0,0.8,9,8
3,1,2,55,-0.8,0.473095,1,1.0,1.0,1.6,9,9
3,1,2,56,0.8,0.483735,0,1.0,1.0,-0.8,9,9
3,1,2,57,-0.8,0.566472,1,1.0,1.0,0.8,9,9
3,1,2,58,-0.2,0.716524,1,1.0,1.0,-0.8,3,9
3,1,2,60,0.2,0.48228,0,1.0,0.0,-0.2,2,1
3,1,2,61,-0.2,0.457067,1,1.0,1.0,0.2,4,2
3,1,2,62,-0.8,0.396349,1,1.0,1.0,-0.2,9,4
3,1,2,63,0.8,0.527184,0,1.0,1.0,-0.8,9,9
3,1,2,64,-1.6,0.441972,1,1.0,1.0,0.8,9,9
3,1,2,65,-0.8,0.966663,1,1.0,1.0,-1.6,5,9
3,1,2,66,0.2,0.453514,0,1.0,1.0,-0.8,9,5
3,1,2,67,-0.2,0.414842,1,1.0,1.0,0.2,9,9
3,1,2,68,-0.2,0.416228,1,1.0,1.0,-0.2,5,9
3,1,2,69,0.2,0.758416,1,-1.0,1.0,-0.2,3,5
3,1,2,70,-1.6,0.490984,1,1.0,-1.0,0.2,9,3
3,1,2,71,1.6,0.449932,0,1.0,1.0,-1.6,9,9
3,1,2,72,0.8,0.498696,0,1.0,1.0,1.6,9,9
3,1,2,73,-1.6,0.434136,1,1.0,1.0,0.8,9,9
3,1,2,74,-0.8,0.568164,1,1.0,1.0,-1.6,4,9
3,1,2,75,-1.6,0.524954,1,1.0,1.0,-0.8,9,4
3,1,2,76,0.2,0.491662,0,1.0,1.0,-1.6,9,9
3,1,2,77,0.8,0.509823,0,1.0,1.0,0.2,9,9
3,1,2,78,0.8,0.485175,0,1.0,1.0,0.8,9,9
3,1,2,79,-0.8,0.434741,1,1.0,1.0,0.8,3,9
3,1,2,80,1.6,0.345546,0,1.0,1.0,-0.8,9,3
3,1,2,81,0.2,0.420284,0,1.0,1.0,1.6,9,9
3,1,2,82,-1.6,0.400262,1,1.0,1.0,0.2,9,9
3,1,2,84,-0.2,0.320558,1,1.0,0.0,-0.8,7,4
3,1,2,85,0.8,0.635422,0,1.0,1.0,-0.2,9,7
3,1,2,86,-1.6,0.397403,1,1.0,1.0,0.8,9,9
3,1,2,87,-0.2,0.765469,1,1.0,1.0,-1.6,3,9
3,1,2,88,0.2,0.427637,0,1.0,1.0,-0.2,8,3
3,1,2,89,0.8,0.56907,0,1.0,1.0,0.2,4,8
3,1,2,90,-1.6,0.441109,1,1.0,1.0,0.8,9,4
3,1,2,91,0.8,0.668786,0,1.0,1.0,-1.6,8,9
3,1,2,92,-1.6,0.439882,1,1.0,1.0,0.8,9,8
3,1,2,93,-0.2,0.576221,1,1.0,1.0,-1.6,3,9
3,1,2,94,-0.2,0.537554,1,1.0,1.0,-0.2,8,3
3,1,2,95,1.6,0.446522,0,1.0,1.0,-0.2,9,8
3,1,2,96,0.2,0.499909,0,1.0,1.0,1.6,8,9
3,1,2,97,0.2,0.453421,0,1.0,1.0,0.2,6,8
3,1,2,98,0.8,0.49413,0,1.0,1.0,0.2,7,6
3,1,2,99,-0.8,0.547434,1,1.0,1.0,0.8,7,7
3,1,2,100,1.6,0.460955,0,1.0,1.0,-0.8,9,7
3,1,2,101,0.2,0.443158,0,1.0,1.0,1.6,8,9
3,1,2,102,-1.6,0.432364,1,1.0,1.0,0.2,9,8
3,1,2,103,-0.8,0.466541,1,1.0,1.0,-1.6,9,9
3,1,2,104,-0.2,0.409345,1,1.0,1.0,-0.8,9,9
3,1,2,105,-1.6,0.386837,1,1.0,1.0,-0.2,9,9
3,1,2,106,0.8,0.528326,0,1.0,1.0,-1.6,8,9
3,1,2,107,-1.6,0.452255,1,1.0,1.0,0.8,9,8
3,1,2,108,0.2,0.459163,0,1.0,1.0,-1.6,9,9
3,1,2,109,0.2,0.392607,1,-1.0,1.0,0.2,9,9
3,1,2,110,-0.2,0.451203,1,1.0,-1.0,0.2,9,9
3,2,2,1,0.2,0.584703,1,-1.0,0.0,-100.0,6,-100
3,2,2,2,0.8,0.70528,0,1.0,-1.0,0.2,6,6
3,2,2,3,0.8,0.500417,0,1.0,1.0,0.8,4,6
3,2,2,4,1.6,0.499037,0,1.0,1.0,0.8,7,4
3,2,2,5,-0.8,0.482435,1,1.0,1.0,1.6,9,7
3,2,2,6,-0.2,0.464413,0,-1.0,1.0,-0.8,9,9
3,2,2,7,0.8,0.450611,0,1.0,-1.0,-0.2,9,9
3,2,2,8,-0.8,0.5166,1,1.0,1.0,0.8,9,9
3,2,2,9,-0.2,0.499749,1,1.0,1.0,-0.8,9,9
3,2,2,10,0.8,0.493485,0,1.0,1.0,-0.2,9,9
3,2,2,11,-0.8,0.462768,1,1.0,1.0,0.8,9,9
3,2,2,12,-0.2,0.426469,1,1.0,1.0,-0.8,9,9
3,2,2,13,0.2,0.575744,0,1.0,1.0,-0.2,9,9
3,2,2,14,-0.2,0.610017,1,1.0,1.0,0.2,8,9
3,2,2,15,-1.6,0.4039,1,1.0,1.0,-0.2,9,8
3,2,2,16,0.2,0.679559,1,-1.0,1.0,-1.6,9,9
3,2,2,17,-0.8,0.497139,1,1.0,-1.0,0.2,9,9
3,2,2,18,0.2,0.617139,0,1.0,1.0,-0.8,9,9
3,2,2,19,-1.6,0.456749,1,1.0,1.0,0.2,9,9
3,2,2,20,0.2,0.763372,1,-1.0,1.0,-1.6,9,9
3,2,2,21,-0.2,0.487906,1,1.0,-1.0,0.2,7,9
3,2,2,22,0.2,0.428176,0,1.0,1.0,-0.2,4,7
3,2,2,23,-0.2,0.54722,0,-1.0,1.0,0.2,4,4
3,2,2,24,-0.2,0.70499,1,1.0,-1.0,-0.2,2,4
3,2,2,25,0.2,0.452586,1,-1.0,1.0,-0.2,5,2
3,2,2,27,-0.8,0.461203,1,1.0,0.0,0.2,9,4
3,2,2,28,-0.8,0.395469,1,1.0,1.0,-0.8,9,9
3,2,2,29,-0.8,0.453219,1,1.0,1.0,-0.8,9,9
3,2,2,30,-0.8,0.505065,1,1.0,1.0,-0.8,9,9
3,2,2,31,-1.6,0.457923,1,1.0,1.0,-0.8,9,9
3,2,2,32,-0.8,0.431833,1,1.0,1.0,-1.6,9,9
3,2,2,33,0.2,0.455992,1,-1.0,1.0,-0.8,9,9
3,2,2,34,0.2,0.623357,0,1.0,-1.0,0.2,9,9
3,2,2,35,0.2,0.422367,0,1.0,1.0,0.2,9,9
3,2,2,36,1.6,0.424321,0,1.0,1.0,0.2,9,9
3,2,2,37,0.2,0.387384,0,1.0,1.0,1.6,9,9
3,2,2,38,0.8,0.39314,0,1.0,1.0,0.2,9,9
3,2,2,39,-0.2,0.556675,0,-1.0,1.0,0.8,9,9
3,2,2,40,-0.8,0.387205,1,1.0,-1.0,-0.2,9,9
3,2,2,41,1.6,0.399805,0,1.0,1.0,-0.8,9,9
3,2,2,42,0.8,0.388058,0,1.0,1.0,1.6,9,9
3,2,2,43,0.8,0.396318,0,1.0,1.0,0.8,9,9
3,2,2,44,-1.6,0.397568,1,1.0,1.0,0.8,9,9
3,2,2,45,0.8,0.415288,0,1.0,1.0,-1.6,9,9
3,2,2,46,0.2,0.391015,0,1.0,1.0,0.8,9,9
3,2,2,47,1.6,0.350001,0,1.0,1.0,0.2,9,9
3,2,2,48,0.2,0.405803,1,-1.0,1.0,1.6,6,9
3,2,2,49,-0.2,0.429929,1,1.0,-1.0,0.2,9,6
3,2,2,50,-1.6,0.358187,1,1.0,1.0,-0.2,9,9
3,2,2,51,-0.2,0.566486,0,-1.0,1.0,-1.6,4,9
3,2,2,53,0.8,0.627272,0,1.0,0.0,-0.2,7,3
3,2,2,54,1.6,0.416018,0,1.0,1.0,0.8,9,7
3,2,2,55,-1.6,0.486961,1,1.0,1.0,1.6,9,9
3,2,2,56,-0.2,0.494892,1,1.0,1.0,-1.6,6,9
3,2,2,57,1.6,0.344907,0,1.0,1.0,-0.2,9,6
3,2,2,58,-0.2,0.434306,1,1.0,1.0,1.6,9,9
3,2,2,59,-0.2,0.581052,1,1.0,1.0,-0.2,3,9
3,2,2,60,-0.8,0.381961,1,1.0,1.0,-0.2,9,3
3,2,2,61,0.2,0.396243,1,-1.0,1.0,-0.8,2,9
3,2,2,62,-0.8,0.446813,1,1.0,-1.0,0.2,9,2
3,2,2,63,-0.2,0.499077,1,1.0,1.0,-0.8,9,9
3,2,2,64,1.6,0.424362,0,1.0,1.0,-0.2,9,9
3,2,2,65,0.8,0.443713,1,-1.0,1.0,1.6,7,9
3,2,2,66,-0.8,0.397108,1,1.0,-1.0,0.8,9,7
3,2,2,67,0.8,0.48293,0,1.0,1.0,-0.8,9,9
3,2,2,68,-0.2,0.417993,1,1.0,1.0,0.8,9,9
3,2,2,69,-0.2,0.564239,1,1.0,1.0,-0.2,8,9
3,2,2,70,0.2,0.404137,1,-1.0,1.0,-0.2,8,8
3,2,2,71,-0.8,0.423925,1,1.0,-1.0,0.2,9,8
3,2,2,72,-0.8,0.440421,1,1.0,1.0,-0.8,9,9
3,2,2,73,-0.2,0.638909,0,-1.0,1.0,-0.8,9,9
3,2,2,74,-0.2,0.427252,1,1.0,-1.0,-0.2,9,9
3,2,2,75,0.2,0.512322,0,1.0,1.0,-0.2,9,9
3,2,2,76,1.6,0.420343,0,1.0,1.0,0.2,9,9
3,2,2,77,0.8,0.377237,0,1.0,1.0,1.6,9,9
3,2,2,78,-0.8,0.369892,0,-1.0,1.0,0.8,9,9
3,2,2,79,1.6,0.349089,0,1.0,-1.0,-0.8,9,9
3,2,2,80,0.8,0.306624,0,1.0,1.0,1.6,9,9
3,2,2,81,0.8,0.345604,0,1.0,1.0,0.8,9,9
3,2,2,82,0.2,0.369433,0,1.0,1.0,0.8,9,9
3,2,2,83,-1.6,0.369712,1,1.0,1.0,0.2,9,9
3,2,2,84,1.6,0.406413,0,1.0,1.0,-1.6,9,9
3,2,2,85,0.2,0.526093,0,1.0,1.0,1.6,9,9
3,2,2,86,-1.6,0.393895,1,1.0,1.0,0.2,9,9
3,2,2,87,1.6,0.464925,0,1.0,1.0,-1.6,9,9
3,2,2,88,-0.2,0.507964,1,1.0,1.0,1.6,4,9
3,2,2,89,1.6,0.389006,0,1.0,1.0,-0.2,9,4
3,2,2,90,-0.8,0.435487,1,1.0,1.0,1.6,9,9
3,2,2,91,-1.6,0.351304,1,1.0,1.0,-0.8,9,9
3,2,2,92,0.8,0.403795,0,1.0,1.0,-1.6,9,9
3,2,2,93,0.8,0.386812,0,1.0,1.0,0.8,9,9
3,2,2,94,-0.2,0.352609,1,1.0,1.0,0.8,9,9
3,2,2,95,-1.6,0.396259,1,1.0,1.0,-0.2,9,9
3,2,2,96,0.2,0.331505,1,-1.0,1.0,-1.6,4,9
3,2,2,97,-0.2,0.35583,0,-1.0,-1.0,0.2,9,4
3,2,2,98,0.8,0.403093,0,1.0,-1.0,-0.2,9,9
3,2,2,99,0.8,0.386259,0,1.0,1.0,0.8,9,9
3,2,2,100,0.2,0.329876,0,1.0,1.0,0.8,9,9
3,2,2,101,0.8,0.416199,1,-1.0,1.0,0.2,9,9
3,2,2,102,-0.8,0.526074,1,1.0,-1.0,0.8,9,9
3,2,2,103,-0.8,0.510382,1,1.0,1.0,-0.8,8,9
3,2,2,104,-1.6,0.381609,1,1.0,1.0,-0.8,9,8
3,2,2,105,-1.6,0.414997,1,1.0,1.0,-1.6,9,9
3,2,2,106,0.2,0.595153,1,-1.0,1.0,-1.6,7,9
3,2,2,107,-0.2,0.460038,1,1.0,-1.0,0.2,3,7
3,2,2,108,0.8,0.517958,1,-1.0,1.0,-0.2,2,3
3,2,2,109,0.2,0.357615,1,-1.0,-1.0,0.8,7,2
3,2,2,110,-0.8,0.370092,1,1.0,-1.0,0.2,8,7
3,3,2,1,-0.2,0.455594,1,1.0,0.0,-100.0,7,-100
3,3,2,2,-0.2,0.443471,1,1.0,1.0,-0.2,7,7
3,3,2,3,-1.6,0.398487,1,1.0,1.0,-0.2,8,7
3,3,2,4,-1.6,0.347434,1,1.0,1.0,-1.6,9,8
3,3,2,5,0.2,0.368249,1,-1.0,1.0,-1.6,9,9
3,3,2,6,0.8,0.494014,0,1.0,-1.0,0.2,9,9
3,3,2,7,-0.2,0.478722,0,-1.0,1.0,0.8,9,9
3,3,2,8,-0.2,0.501294,1,1.0,-1.0,-0.2,9,9
3,3,2,9,-1.6,0.497152,1,1.0,1.0,-0.2,9,9
3,3,2,10,-0.2,0.542821,0,-1.0,1.0,-1.6,9,9
3,3,2,11,0.8,0.467147,0,1.0,-1.0,-0.2,6,9
3,3,2,12,-1.6,0.42428,1,1.0,1.0,0.8,9,6
3,3,2,13,-0.8,0.527864,1,1.0,1.0,-1.6,7,9
3,3,2,14,0.8,0.437209,0,1.0,1.0,-0.8,9,7
3,3,2,15,-1.6,0.442498,1,1.0,1.0,0.8,9,9
3,3,2,16,0.2,0.543514,0,1.0,1.0,-1.6,9,9
3,3,2,17,0.8,0.415855,0,1.0,1.0,0.2,9,9
3,3,2,18,1.6,0.443578,0,1.0,1.0,0.8,9,9
3,3,2,19,0.2,0.449862,0,1.0,1.0,1.6,9,9
3,3,2,20,0.8,0.411882,0,1.0,1.0,0.2,9,9
3,3,2,21,0.2,0.436708,1,-1.0,1.0,0.8,3,9
3,3,2,22,0.8,0.519355,0,1.0,-1.0,0.2,9,3
3,3,2,23,-0.2,0.685589,1,1.0,1.0,0.8,9,9
3,3,2,24,-0.8,0.444146,1,1.0,1.0,-0.2,9,9
3,3,2,25,0.8,0.461261,0,1.0,1.0,-0.8,9,9
3,3,2,26,0.8,0.48601,0,1.0,1.0,0.8,9,9
3,3,2,27,-0.2,0.468528,1,1.0,1.0,0.8,9,9
3,3,2,28,-0.2,0.413844,1,1.0,1.0,-0.2,9,9
3,3,2,29,-1.6,0.391652,1,1.0,1.0,-0.2,9,9
3,3,2,30,-0.2,0.391553,1,1.0,1.0,-1.6,9,9
3,3,2,31,-0.2,0.347151,1,1.0,1.0,-0.2,4,9
3,3,2,32,-0.2,0.359045,1,1.0,1.0,-0.2,9,4
3,3,2,33,1.6,0.508113,0,1.0,1.0,-0.2,9,9
3,3,2,34,0.2,0.585856,0,1.0,1.0,1.6,9,9
3,3,2,35,-0.2,0.542501,1,1.0,1.0,0.2,9,9
3,3,2,36,0.2,0.38805,1,-1.0,1.0,-0.2,8,9
3,3,2,37,0.2,0.397866,1,-1.0,-1.0,0.2,8,8
3,3,2,38,1.6,0.462287,0,1.0,-1.0,0.2,9,8
3,3,2,39,0.8,0.461913,0,1.0,1.0,1.6,9,9
3,3,2,40,0.8,0.475847,0,1.0,1.0,0.8,9,9
3,3,2,41,0.8,0.58802,0,1.0,1.0,0.8,9,9
3,3,2,42,-1.6,0.471974,1,1.0,1.0,0.8,9,9
3,3,2,43,0.2,0.397658,0,1.0,1.0,-1.6,9,9
3,3,2,44,1.6,0.441547,0,1.0,1.0,0.2,9,9
3,3,2,45,0.2,0.397164,0,1.0,1.0,1.6,9,9
3,3,2,46,-1.6,0.390867,1,1.0,1.0,0.2,9,9
3,3,2,47,0.2,0.439815,1,-1.0,1.0,-1.6,9,9
3,3,2,48,-0.2,0.447848,1,1.0,-1.0,0.2,9,9
3,3,2,49,-0.2,0.450541,0,-1.0,1.0,-0.2,9,9
3,3,2,50,-0.8,0.477972,1,1.0,-1.0,-0.2,9,9
3,3,2,52,0.8,0.573019,0,1.0,0.0,-0.8,6,9
3,3,2,53,-0.2,0.575859,1,1.0,1.0,0.8,9,6
3,3,2,54,0.2,0.589696,0,1.0,1.0,-0.2,7,9
3,3,2,56,-1.6,0.423242,1,1.0,0.0,0.2,9,8
3,3,2,57,0.8,0.406347,0,1.0,1.0,-1.6,9,9
3,3,2,58,0.2,0.519636,0,1.0,1.0,0.8,9,9
3,3,2,59,1.6,0.378519,0,1.0,1.0,0.2,9,9
3,3,2,60,0.2,0.389063,0,1.0,1.0,1.6,9,9
3,3,2,61,0.8,0.391325,0,1.0,1.0,0.2,9,9
3,3,2,62,-0.2,0.415276,1,1.0,1.0,0.8,7,9
3,3,2,63,-0.8,0.396962,1,1.0,1.0,-0.2,9,7
3,3,2,64,-0.8,0.356722,1,1.0,1.0,-0.8,9,9
3,3,2,65,-1.6,0.543854,1,1.0,1.0,-0.8,9,9
3,3,2,66,-0.8,0.512836,1,1.0,1.0,-1.6,9,9
3,3,2,67,0.8,0.566659,0,1.0,1.0,-0.8,9,9
3,3,2,68,0.8,0.489846,0,1.0,1.0,0.8,9,9
3,3,2,69,1.6,0.395114,0,1.0,1.0,0.8,9,9
3,3,2,70,-1.6,0.410687,1,1.0,1.0,1.6,9,9
3,3,2,71,-1.6,0.379195,1,1.0,1.0,-1.6,9,9
3,3,2,72,1.6,0.490889,0,1.0,1.0,-1.6,9,9
3,3,2,73,0.2,0.412263,1,-1.0,1.0,1.6,3,9
3,3,2,74,0.8,0.443732,0,1.0,-1.0,0.2,9,3
3,3,2,75,-0.2,0.444235,1,1.0,1.0,0.8,9,9
3,3,2,76,-0.8,0.438548,1,1.0,1.0,-0.2,9,9
3,3,2,77,0.2,0.534479,0,1.0,1.0,-0.8,7,9
3,3,2,78,-0.2,0.414012,1,1.0,1.0,0.2,9,7
3,3,2,79,1.6,0.437884,0,1.0,1.0,-0.2,9,9
3,3,2,80,-0.8,0.504865,1,1.0,1.0,1.6,9,9
3,3,2,81,-0.8,0.428702,1,1.0,1.0,-0.8,9,9
3,3,2,82,-0.8,0.381661,1,1.0,1.0,-0.8,9,9
3,3,2,83,1.6,0.472819,0,1.0,1.0,-0.8,9,9
3,3,2,84,0.8,0.490561,0,1.0,1.0,1.6,9,9
3,3,2,85,-0.8,0.524341,0,-1.0,1.0,0.8,9,9
3,3,2,86,0.2,0.405606,0,1.0,-1.0,-0.8,9,9
3,3,2,87,-0.8,0.40515,1,1.0,1.0,0.2,9,9
3,3,2,88,-0.2,0.47038,1,1.0,1.0,-0.8,9,9
3,3,2,89,1.6,0.407302,0,1.0,1.0,-0.2,4,9
3,3,2,90,0.2,0.581681,1,-1.0,1.0,1.6,3,4
3,3,2,91,-0.8,0.451593,1,1.0,-1.0,0.2,9,3
3,3,2,92,0.2,0.426046,1,-1.0,1.0,-0.8,8,9
3,3,2,93,-0.8,0.348828,1,1.0,-1.0,0.2,8,8
3,3,2,94,-0.8,0.383479,1,1.0,1.0,-0.8,8,8
3,3,2,95,-0.8,0.382697,1,1.0,1.0,-0.8,9,8
3,3,2,96,0.2,0.412368,1,-1.0,1.0,-0.8,9,9
3,3,2,97,0.8,0.34341,0,1.0,-1.0,0.2,9,9
3,3,2,98,0.2,0.504695,0,1.0,1.0,0.8,9,9
3,3,2,99,-0.8,0.404282,0,-1.0,1.0,0.2,9,9
3,3,2,100,-0.8,0.388088,0,-1.0,-1.0,-0.8,9,9
3,3,2,101,1.6,0.383885,0,1.0,-1.0,-0.8,9,9
3,3,2,102,-0.2,0.319025,0,-1.0,1.0,1.6,8,9
3,3,2,103,-0.2,0.360623,0,-1.0,-1.0,-0.2,8,8
3,3,2,104,1.6,0.336573,0,1.0,-1.0,-0.2,9,8
3,3,2,105,-0.8,0.464088,1,1.0,1.0,1.6,4,9
3,3,2,106,0.2,0.431347,0,1.0,1.0,-0.8,4,4
3,3,2,107,-0.2,0.340217,0,-1.0,1.0,0.2,9,4
3,3,2,108,-0.2,0.397357,1,1.0,-1.0,-0.2,7,9
3,3,2,109,0.8,0.371914,0,1.0,1.0,-0.2,9,7
3,3,2,110,0.2,0.355105,0,1.0,1.0,0.8,9,9
3,1,3,1,-0.2,0.582717,1,1.0,0.0,-100.0,2,-100
3,1,3,2,0.2,0.448805,1,-1.0,1.0,-0.2,4,2
3,1,3,3,-0.2,0.45696,1,1.0,-1.0,0.2,9,4
3,1,3,4,0.8,0.47433,0,1.0,1.0,-0.2,9,9
3,1,3,5,0.8,0.809313,0,1.0,1.0,0.8,7,9
3,1,3,6,1.6,0.376608,0,1.0,1.0,0.8,9,7
3,1,3,7,-0.2,0.420767,0,-1.0,1.0,1.6,3,9
3,1,3,8,0.2,0.360255,0,1.0,-1.0,-0.2,2,3
3,1,3,9,0.2,0.415549,1,-1.0,1.0,0.2,4,2
3,1,3,10,0.8,0.399749,0,1.0,-1.0,0.2,9,4
3,1,3,11,-1.6,0.411015,1,1.0,1.0,0.8,9,9
3,1,3,12,-0.8,0.501247,1,1.0,1.0,-1.6,9,9
3,1,3,13,1.6,0.437313,0,1.0,1.0,-0.8,9,9
3,1,3,14,1.6,0.381526,0,1.0,1.0,1.6,9,9
3,1,3,15,-0.2,0.713474,1,1.0,1.0,1.6,3,9
3,1,3,16,0.8,0.465479,0,1.0,1.0,-0.2,9,3
3,1,3,17,1.6,0.359773,0,1.0,1.0,0.8,9,9
3,1,3,18,0.2,0.559359,0,1.0,1.0,1.6,9,9
3,1,3,19,-0.2,0.554505,1,1.0,1.0,0.2,3,9
3,1,3,20,-0.2,0.633264,0,-1.0,1.0,-0.2,9,3
3,1,3,21,-0.2,0.517481,1,1.0,-1.0,-0.2,9,9
3,1,3,22,0.8,0.82761,0,1.0,1.0,-0.2,4,9
3,1,3,23,0.2,0.478918,1,-1.0,1.0,0.8,9,4
3,1,3,24,1.6,0.516027,0,1.0,-1.0,0.2,9,9
3,1,3,25,-0.2,0.554006,1,1.0,1.0,1.6,8,9
3,1,3,26,-0.2,0.798132,0,-1.0,1.0,-0.2,4,8
3,1,3,27,1.6,0.507333,0,1.0,-1.0,-0.2,9,4
3,1,3,28,0.2,0.572854,1,-1.0,1.0,1.6,4,9
3,1,3,29,0.8,0.487629,0,1.0,-1.0,0.2,8,4
3,1,3,30,-0.8,0.581824,1,1.0,1.0,0.8,9,8
