Name,Run,Session,Trial,AngleValue,Rt1,Resp1,Acc,PreviousTrialR,PreviousTrialCoh
1,2,1,1,-0.2,0.504279,0,-1.0,0.0,-100.0
1,2,1,2,0.2,0.451154,0,1.0,-1.0,-0.2
1,2,1,3,1.6,0.35158,0,1.0,1.0,0.2
1,2,1,4,0.2,0.360228,1,-1.0,1.0,1.6
1,2,1,5,1.6,0.345189,0,1.0,-1.0,0.2
1,2,1,6,-0.5,0.338392,1,1.0,1.0,1.6
1,2,1,7,-0.2,0.363956,0,-1.0,1.0,-0.5
1,2,1,8,0.5,0.37289,0,1.0,-1.0,-0.2
1,2,1,9,-0.8,0.340438,1,1.0,1.0,0.5
1,2,1,10,0.5,0.421838,1,-1.0,1.0,-0.8
1,2,1,11,-0.2,0.48405,1,1.0,-1.0,0.5
1,2,1,12,0.5,0.423432,0,1.0,1.0,-0.2
1,2,1,13,-0.2,0.389424,1,1.0,1.0,0.5
1,2,1,14,-0.2,0.420826,1,1.0,1.0,-0.2
1,2,1,15,1.6,0.402999,0,1.0,1.0,-0.2
1,2,1,16,0.5,0.369663,1,-1.0,1.0,1.6
1,2,1,17,-0.2,0.489721,1,1.0,-1.0,0.5
1,2,1,18,-0.8,0.517041,1,1.0,1.0,-0.2
1,2,1,19,0.5,0.415341,0,1.0,1.0,-0.8
1,2,1,20,0.2,0.405826,1,-1.0,1.0,0.5
1,2,1,21,-0.8,0.420358,1,1.0,-1.0,0.2
1,2,1,22,-0.8,0.410484,1,1.0,1.0,-0.8
1,2,1,23,1.6,0.361349,1,-1.0,1.0,-0.8
1,2,1,24,0.2,0.457873,1,-1.0,-1.0,1.6
1,2,1,25,-1.6,0.438814,1,1.0,-1.0,0.2
1,2,1,26,-0.8,0.372218,1,1.0,1.0,-1.6
1,2,1,27,-0.5,0.476346,0,-1.0,1.0,-0.8
1,2,1,28,0.8,0.52043,0,1.0,-1.0,-0.5
1,2,1,29,0.2,0.538413,1,-1.0,1.0,0.8
1,2,1,30,0.2,0.387868,0,1.0,-1.0,0.2
1,2,1,31,0.2,0.667211,0,1.0,1.0,0.2
1,2,1,32,-0.8,0.527385,0,-1.0,1.0,0.2
1,2,1,33,0.8,0.473262,0,1.0,-1.0,-0.8
1,2,1,34,-0.5,0.79719,0,-1.0,1.0,0.8
1,2,1,35,-0.5,0.492732,0,-1.0,-1.0,-0.5
1,2,1,36,0.2,0.728429,0,1.0,-1.0,-0.5
1,2,1,37,0.2,0.394263,0,1.0,1.0,0.2
1,2,1,38,-0.2,0.577589,1,1.0,1.0,0.2
1,2,1,39,0.5,0.481724,0,1.0,1.0,-0.2
1,2,1,40,0.8,0.469677,0,1.0,1.0,0.5
1,2,1,41,0.2,0.521765,0,1.0,1.0,0.8
1,2,1,42,-0.5,0.603645,1,1.0,1.0,0.2
1,2,1,43,-0.5,0.594468,0,-1.0,1.0,-0.5
1,2,1,44,-0.2,0.442027,0,-1.0,-1.0,-0.5
1,2,1,45,-1.6,0.527265,1,1.0,-1.0,-0.2
1,2,1,46,0.8,0.393362,0,1.0,1.0,-1.6
1,2,1,47,0.2,0.472666,0,1.0,1.0,0.8
1,2,1,48,-0.5,0.420874,0,-1.0,1.0,0.2
1,2,1,49,0.2,0.443037,0,1.0,-1.0,-0.5
1,2,1,50,-1.6,0.512127,1,1.0,1.0,0.2
1,2,1,51,0.8,0.435024,0,1.0,1.0,-1.6
1,2,1,52,-0.2,0.552515,1,1.0,1.0,0.8
1,2,1,53,0.2,0.472852,0,1.0,1.0,-0.2
1,2,1,55,0.5,0.450427,0,1.0,0.0,0.2
1,2,1,56,-0.2,0.487172,0,-1.0,1.0,0.5
1,2,1,57,-0.8,0.506574,1,1.0,-1.0,-0.2
1,2,1,58,0.2,0.46934,0,1.0,1.0,-0.8
1,2,1,59,-1.6,0.529294,1,1.0,1.0,0.2
1,2,1,60,0.5,0.499576,0,1.0,1.0,-1.6
1,2,1,61,-1.6,0.48628,1,1.0,1.0,0.5
1,2,1,62,1.6,0.465412,0,1.0,1.0,-1.6
1,2,1,63,0.5,0.590428,0,1.0,1.0,1.6
1,2,1,64,0.8,0.557745,0,1.0,1.0,0.5
1,2,1,65,0.2,0.566422,0,1.0,1.0,0.8
1,2,1,66,-0.5,0.598496,0,-1.0,1.0,0.2
1,2,1,67,-0.5,0.589814,1,1.0,-1.0,-0.5
1,2,1,68,0.5,0.629267,0,1.0,1.0,-0.5
1,2,1,69,1.6,0.387427,0,1.0,1.0,0.5
1,2,1,70,-0.2,0.522851,1,1.0,1.0,1.6
1,2,1,71,0.5,0.492693,0,1.0,1.0,-0.2
1,2,1,72,-0.8,0.528062,1,1.0,1.0,0.5
1,2,1,73,0.2,0.506266,0,1.0,1.0,-0.8
1,2,1,74,-0.2,0.444966,0,-1.0,1.0,0.2
1,2,1,75,0.5,0.434429,0,1.0,-1.0,-0.2
1,2,1,76,-0.5,0.607705,0,-1.0,1.0,0.5
1,2,1,77,-0.8,0.478142,1,1.0,-1.0,-0.5
1,2,1,78,-0.2,0.498472,0,-1.0,1.0,-0.8
1,2,1,79,0.2,0.661867,0,1.0,-1.0,-0.2
1,2,1,80,-0.8,0.594673,0,-1.0,1.0,0.2
1,2,1,81,-0.2,0.561985,1,1.0,-1.0,-0.8
1,2,1,82,0.5,0.522677,0,1.0,1.0,-0.2
1,2,1,83,0.5,0.436725,0,1.0,1.0,0.5
1,2,1,84,-0.2,0.522363,0,-1.0,1.0,0.5
1,2,1,85,-0.2,0.588494,1,1.0,-1.0,-0.2
1,2,1,86,0.8,0.44363,0,1.0,1.0,-0.2
1,2,1,87,0.5,0.44115,0,1.0,1.0,0.8
1,2,1,89,0.5,0.4681,0,1.0,0.0,-0.5
1,2,1,90,-0.5,0.775807,0,-1.0,1.0,0.5
1,2,1,91,-0.5,0.735929,1,1.0,-1.0,-0.5
1,2,1,92,-1.6,0.505242,1,1.0,1.0,-0.5
1,2,1,93,-0.2,0.500072,1,1.0,1.0,-1.6
1,2,1,94,-0.2,0.558709,0,-1.0,1.0,-0.2
1,2,1,95,-0.5,0.527349,1,1.0,-1.0,-0.2
1,2,1,96,-0.5,0.609462,0,-1.0,1.0,-0.5
1,2,1,97,-0.5,0.512343,1,1.0,-1.0,-0.5
1,2,1,98,0.8,0.55507,0,1.0,1.0,-0.5
1,2,1,99,0.5,0.643797,0,1.0,1.0,0.8
1,2,1,100,-0.2,0.673217,1,1.0,1.0,0.5
1,2,1,101,0.2,0.557106,1,-1.0,1.0,-0.2
1,2,1,102,0.2,0.485894,0,1.0,-1.0,0.2
1,2,1,103,0.2,0.585443,0,1.0,1.0,0.2
1,2,1,104,-0.5,0.544545,1,1.0,1.0,0.2
1,2,1,105,1.6,0.498127,0,1.0,1.0,-0.5
1,2,1,106,-0.5,0.565551,1,1.0,1.0,1.6
1,2,1,107,0.8,0.453545,0,1.0,1.0,-0.5
1,2,1,108,-1.6,0.474287,1,1.0,1.0,0.8
1,2,1,109,-0.2,0.702265,0,-1.0,1.0,-1.6
1,2,1,110,0.5,0.576946,1,-1.0,-1.0,-0.2
1,2,1,111,0.5,0.70525,0,1.0,-1.0,0.5
1,2,1,112,-0.5,0.55585,1,1.0,1.0,0.5
1,2,1,113,1.6,0.540408,0,1.0,1.0,-0.5
1,2,1,114,0.2,0.597905,1,-1.0,1.0,1.6
1,2,1,115,-0.5,0.477237,1,1.0,-1.0,0.2
1,2,1,116,0.2,0.721548,0,1.0,1.0,-0.5
1,2,1,117,0.8,0.45148,0,1.0,1.0,0.2
1,2,1,118,0.8,0.568253,0,1.0,1.0,0.8
1,2,1,119,0.2,0.671964,1,-1.0,1.0,0.8
1,2,1,120,-0.2,0.54028,1,1.0,-1.0,0.2
1,2,1,121,-0.2,0.613637,1,1.0,1.0,-0.2
1,2,1,122,-0.8,0.52444,1,1.0,1.0,-0.2
1,2,1,123,0.5,0.622469,0,1.0,1.0,-0.8
1,2,1,124,-0.8,0.476452,1,1.0,1.0,0.5
1,2,1,125,-0.2,0.680567,1,1.0,1.0,-0.8
1,2,1,126,-0.2,0.59665,1,1.0,1.0,-0.2
1,2,1,127,0.8,0.484069,0,1.0,1.0,-0.2
1,2,1,128,-1.6,0.471323,1,1.0,1.0,0.8
1,2,2,1,0.2,0.597451,0,1.0,0.0,-100.0
1,2,2,2,0.8,0.412054,0,1.0,1.0,0.2
1,2,2,3,-0.2,0.56255,0,-1.0,1.0,0.8
1,2,2,4,0.8,0.395303,0,1.0,-1.0,-0.2
1,2,2,5,-1.6,0.482987,1,1.0,1.0,0.8
1,2,2,6,0.2,0.438246,0,1.0,1.0,-1.6
1,2,2,7,0.5,0.499531,0,1.0,1.0,0.2
1,2,2,8,-0.5,0.382224,0,-1.0,1.0,0.5
1,2,2,9,0.8,0.430232,0,1.0,-1.0,-0.5
1,2,2,10,0.5,0.476402,0,1.0,1.0,0.8
1,2,2,11,0.5,0.400496,0,1.0,1.0,0.5
1,2,2,12,-0.2,0.407039,1,1.0,1.0,0.5
1,2,2,13,0.5,0.44596,0,1.0,1.0,-0.2
1,2,2,14,-0.5,0.435355,0,-1.0,1.0,0.5
1,2,2,15,-0.8,0.480526,1,1.0,-1.0,-0.5
1,2,2,16,-0.5,0.500544,0,-1.0,1.0,-0.8
1,2,2,17,-0.2,0.639498,0,-1.0,-1.0,-0.5
1,2,2,18,0.5,0.428782,0,1.0,-1.0,-0.2
1,2,2,19,-0.5,0.434892,1,1.0,1.0,0.5
1,2,2,20,-0.2,0.608267,0,-1.0,1.0,-0.5
1,2,2,21,0.5,0.518826,0,1.0,-1.0,-0.2
1,2,2,22,0.2,0.473071,0,1.0,1.0,0.5
1,2,2,23,1.6,0.389087,0,1.0,1.0,0.2
1,2,2,24,-0.8,0.436405,1,1.0,1.0,1.6
1,2,2,25,0.5,0.45008,0,1.0,1.0,-0.8
1,2,2,26,0.2,0.470636,0,1.0,1.0,0.5
1,2,2,27,-0.5,0.538559,1,1.0,1.0,0.2
1,2,2,28,-0.2,0.627988,0,-1.0,1.0,-0.5
1,2,2,29,-0.5,0.562037,1,1.0,-1.0,-0.2
1,2,2,30,0.2,0.466842,0,1.0,1.0,-0.5
1,2,2,31,0.5,0.454959,0,1.0,1.0,0.2
1,2,2,32,-0.8,0.563483,1,1.0,1.0,0.5
1,2,2,33,0.5,0.428235,0,1.0,1.0,-0.8
1,2,2,34,0.5,0.410341,0,1.0,1.0,0.5
1,2,2,35,-0.5,0.513106,0,-1.0,1.0,0.5
1,2,2,36,-0.2,0.587752,0,-1.0,-1.0,-0.5
1,2,2,37,-0.2,0.531027,1,1.0,-1.0,-0.2
1,2,2,38,0.2,0.589343,0,1.0,1.0,-0.2
1,2,2,39,0.2,0.46061,0,1.0,1.0,0.2
1,2,2,40,0.5,0.609422,1,-1.0,1.0,0.2
1,2,2,41,-0.5,0.575952,1,1.0,-1.0,0.5
1,2,2,42,-0.2,0.623998,1,1.0,1.0,-0.5
1,2,2,43,0.8,0.614278,0,1.0,1.0,-0.2
1,2,2,44,-0.2,0.588861,0,-1.0,1.0,0.8
1,2,2,45,0.5,0.444332,0,1.0,-1.0,-0.2
1,2,2,46,-0.5,0.521543,1,1.0,1.0,0.5
1,2,2,47,0.2,0.491664,0,1.0,1.0,-0.5
1,2,2,48,0.2,0.471195,0,1.0,1.0,0.2
1,2,2,49,0.8,0.475168,0,1.0,1.0,0.2
1,2,2,50,-1.6,0.679012,1,1.0,1.0,0.8
1,2,2,51,-0.2,0.675343,0,-1.0,1.0,-1.6
1,2,2,52,-0.2,0.607545,0,-1.0,-1.0,-0.2
1,2,2,53,-1.6,0.462036,1,1.0,-1.0,-0.2
1,2,2,54,0.8,0.546845,0,1.0,1.0,-1.6
1,2,2,55,0.5,0.564118,0,1.0,1.0,0.8
1,2,2,56,-0.2,0.564758,1,1.0,1.0,0.5
1,2,2,57,0.5,0.605668,0,1.0,1.0,-0.2
1,2,2,58,-0.8,0.564325,1,1.0,1.0,0.5
1,2,2,59,0.2,0.629106,0,1.0,1.0,-0.8
1,2,2,60,-0.5,0.571127,1,1.0,1.0,0.2
1,2,2,61,-0.2,0.659294,1,1.0,1.0,-0.5
1,2,2,62,0.5,0.488086,0,1.0,1.0,-0.2
1,2,2,63,-0.8,0.619317,1,1.0,1.0,0.5
1,2,2,64,-0.5,0.473399,0,-1.0,1.0,-0.8
1,2,2,65,-0.2,0.58959,0,-1.0,-1.0,-0.5
1,2,2,66,-0.5,0.540866,1,1.0,-1.0,-0.2
1,2,2,67,0.5,0.52628,0,1.0,1.0,-0.5
1,2,2,68,1.6,0.440351,0,1.0,1.0,0.5
1,2,2,69,-0.8,0.573557,1,1.0,1.0,1.6
1,2,2,70,-0.5,0.500719,0,-1.0,1.0,-0.8
1,2,2,71,0.2,0.544544,0,1.0,-1.0,-0.5
1,2,2,72,-0.5,0.417796,0,-1.0,1.0,0.2
1,2,2,73,1.6,0.423902,0,1.0,-1.0,-0.5
1,2,2,74,1.6,0.502134,0,1.0,1.0,1.6
1,2,2,75,0.2,0.552625,0,1.0,1.0,1.6
1,2,2,76,0.5,0.41755,0,1.0,1.0,0.2
1,2,2,77,-0.2,0.527594,0,-1.0,1.0,0.5
1,2,2,78,0.2,0.481521,0,1.0,-1.0,-0.2
1,2,2,79,1.6,0.413755,0,1.0,1.0,0.2
1,2,2,80,-0.2,0.468274,0,-1.0,1.0,1.6
1,2,2,81,0.8,0.464475,0,1.0,-1.0,-0.2
1,2,2,82,0.2,0.485169,1,-1.0,1.0,0.8
1,2,2,83,-0.2,0.568371,1,1.0,-1.0,0.2
1,2,2,84,0.2,0.496608,0,1.0,1.0,-0.2
1,2,2,85,0.8,0.531993,0,1.0,1.0,0.2
1,2,2,86,-0.8,0.549341,1,1.0,1.0,0.8
1,2,2,87,-0.5,0.518072,1,1.0,1.0,-0.8
1,2,2,88,1.6,0.512062,0,1.0,1.0,-0.5
1,2,2,89,-0.2,0.562701,1,1.0,1.0,1.6
1,2,2,90,0.2,0.531566,0,1.0,1.0,-0.2
1,2,2,91,0.8,0.549617,0,1.0,1.0,0.2
1,2,2,92,1.6,0.446432,0,1.0,1.0,0.8
1,2,2,93,0.2,0.747787,0,1.0,1.0,1.6
1,2,2,94,-0.8,0.661073,1,1.0,1.0,0.2
1,2,2,95,-1.6,0.529965,1,1.0,1.0,-0.8
1,2,2,96,0.2,0.491855,0,1.0,1.0,-1.6
1,2,2,97,-0.2,0.503211,1,1.0,1.0,0.2
1,2,2,98,0.8,0.465894,0,1.0,1.0,-0.2
1,2,2,99,0.2,0.68611,0,1.0,1.0,0.8
1,2,2,100,0.2,0.545412,0,1.0,1.0,0.2
1,2,2,101,-0.2,0.490835,0,-1.0,1.0,0.2
1,2,2,102,-0.5,0.710201,0,-1.0,-1.0,-0.2
1,2,2,103,0.8,0.440982,0,1.0,-1.0,-0.5
1,2,2,104,-0.2,0.734358,0,-1.0,1.0,0.8
1,2,2,105,-1.6,0.503596,1,1.0,-1.0,-0.2
1,2,2,107,-0.2,0.543951,1,1.0,0.0,0.2
1,2,2,108,-1.6,0.529249,1,1.0,1.0,-0.2
1,2,2,109,0.8,0.483358,0,1.0,1.0,-1.6
1,2,2,110,-0.5,0.550483,1,1.0,1.0,0.8
1,2,2,111,-0.8,0.431494,0,-1.0,1.0,-0.5
1,2,2,112,-0.8,0.733523,1,1.0,-1.0,-0.8
1,2,2,113,-0.5,0.526862,1,1.0,1.0,-0.8
1,2,2,114,-0.8,0.520878,1,1.0,1.0,-0.5
1,2,2,115,0.2,0.475035,1,-1.0,1.0,-0.8
1,2,2,116,-1.6,0.423002,1,1.0,-1.0,0.2
1,2,2,117,-0.5,0.525148,0,-1.0,1.0,-1.6
1,2,2,118,-0.5,0.511088,0,-1.0,-1.0,-0.5
1,2,2,119,0.5,0.490042,0,1.0,-1.0,-0.5
1,2,2,120,-0.2,0.565341,0,-1.0,1.0,0.5
1,2,2,121,0.2,0.445975,0,1.0,-1.0,-0.2
1,2,2,122,0.2,0.643479,0,1.0,1.0,0.2
1,2,2,123,0.5,0.656895,0,1.0,1.0,0.2
1,2,2,124,-0.8,0.469605,1,1.0,1.0,0.5
1,2,2,125,1.6,0.409471,0,1.0,1.0,-0.8
1,2,2,126,0.5,0.416273,0,1.0,1.0,1.6
1,2,2,127,-1.6,0.510268,1,1.0,1.0,0.5
1,2,2,128,-0.2,0.505031,1,1.0,1.0,-1.6
1,3,2,1,0.2,0.806398,1,-1.0,0.0,-100.0
1,3,2,2,-0.8,0.668946,1,1.0,-1.0,0.2
1,3,2,3,-0.2,0.537193,0,-1.0,1.0,-0.8
1,3,2,4,-0.2,0.45847,0,-1.0,-1.0,-0.2
1,3,2,5,-0.2,0.456193,0,-1.0,-1.0,-0.2
1,3,2,6,-0.2,0.475979,0,-1.0,-1.0,-0.2
1,3,2,7,-0.2,0.551947,0,-1.0,-1.0,-0.2
1,3,2,8,0.5,0.401058,0,1.0,-1.0,-0.2
1,3,2,9,-0.2,0.535541,0,-1.0,1.0,0.5
1,3,2,10,0.2,0.456739,0,1.0,-1.0,-0.2
1,3,2,11,-0.2,0.693503,0,-1.0,1.0,0.2
1,3,2,12,0.2,0.408961,0,1.0,-1.0,-0.2
1,3,2,13,0.8,0.36065,0,1.0,1.0,0.2
1,3,2,14,0.2,0.528338,0,1.0,1.0,0.8
1,3,2,15,0.8,0.466541,0,1.0,1.0,0.2
1,3,2,16,-0.5,0.750651,0,-1.0,1.0,0.8
1,3,2,17,0.8,0.552277,0,1.0,-1.0,-0.5
1,3,2,18,-0.8,0.744638,1,1.0,1.0,0.8
1,3,2,19,-0.2,0.577515,1,1.0,1.0,-0.8
1,3,2,20,-1.6,0.449332,1,1.0,1.0,-0.2
1,3,2,21,0.5,0.494989,0,1.0,1.0,-1.6
1,3,2,22,-0.5,0.48963,1,1.0,1.0,0.5
1,3,2,23,-0.5,0.421765,0,-1.0,1.0,-0.5
1,3,2,24,-0.5,0.402989,1,1.0,-1.0,-0.5
1,3,2,25,0.2,0.425686,0,1.0,1.0,-0.5
1,3,2,26,-0.5,0.599806,1,1.0,1.0,0.2
1,3,2,27,-0.2,0.510582,0,-1.0,1.0,-0.5
1,3,2,28,0.5,0.513368,0,1.0,-1.0,-0.2
1,3,2,29,-0.2,0.571969,0,-1.0,1.0,0.5
1,3,2,30,0.8,0.452087,0,1.0,-1.0,-0.2
1,3,2,31,-1.6,0.488985,1,1.0,1.0,0.8
1,3,2,32,-0.2,0.412162,0,-1.0,1.0,-1.6
1,3,2,33,0.2,0.555143,0,1.0,-1.0,-0.2
1,3,2,34,0.2,0.419484,0,1.0,1.0,0.2
1,3,2,35,0.5,0.386433,0,1.0,1.0,0.2
1,3,2,36,-0.8,0.400956,0,-1.0,1.0,0.5
1,3,2,37,-0.2,0.424534,0,-1.0,-1.0,-0.8
1,3,2,38,-1.6,0.421759,0,-1.0,-1.0,-0.2
1,3,2,39,1.6,0.44415,0,1.0,-1.0,-1.6
1,3,2,40,0.5,0.417291,0,1.0,1.0,1.6
1,3,2,41,0.5,0.408113,0,1.0,1.0,0.5
1,3,2,42,-0.8,0.485993,1,1.0,1.0,0.5
1,3,2,43,-0.2,0.449316,0,-1.0,1.0,-0.8
1,3,2,44,-0.8,0.477987,1,1.0,-1.0,-0.2
1,3,2,45,-0.2,0.379,0,-1.0,1.0,-0.8
1,3,2,46,0.5,0.530297,0,1.0,-1.0,-0.2
1,3,2,47,0.2,0.445032,0,1.0,1.0,0.5
1,3,2,48,0.2,0.385696,0,1.0,1.0,0.2
1,3,2,49,0.2,0.465683,0,1.0,1.0,0.2
1,3,2,50,0.2,0.41383,0,1.0,1.0,0.2
1,3,2,51,0.5,0.380517,0,1.0,1.0,0.2
1,3,2,52,0.2,0.412689,0,1.0,1.0,0.5
1,3,2,53,-0.5,0.411708,0,-1.0,1.0,0.2
1,3,2,54,0.2,0.506093,0,1.0,-1.0,-0.5
1,3,2,55,-0.5,0.421621,0,-1.0,1.0,0.2
1,3,2,56,0.8,0.410951,0,1.0,-1.0,-0.5
1,3,2,57,-0.8,0.378059,0,-1.0,1.0,0.8
1,3,2,58,-0.2,0.361448,0,-1.0,-1.0,-0.8
1,3,2,59,0.2,0.370225,0,1.0,-1.0,-0.2
1,3,2,60,-0.2,0.634142,0,-1.0,1.0,0.2
1,3,2,61,0.5,0.256308,0,1.0,-1.0,-0.2
1,3,2,62,0.2,0.332406,0,1.0,1.0,0.5
1,3,2,63,-0.5,0.421786,0,-1.0,1.0,0.2
1,3,2,64,0.2,0.363793,0,1.0,-1.0,-0.5
1,3,2,65,-0.8,0.324652,0,-1.0,1.0,0.2
1,3,2,66,0.2,0.367287,0,1.0,-1.0,-0.8
1,3,2,67,0.2,0.406573,0,1.0,1.0,0.2
1,3,2,68,-0.5,0.365506,0,-1.0,1.0,0.2
1,3,2,69,-0.5,0.374393,0,-1.0,-1.0,-0.5
1,3,2,70,-0.5,0.382213,0,-1.0,-1.0,-0.5
1,3,2,71,-0.8,0.366217,0,-1.0,-1.0,-0.5
1,3,2,73,1.6,0.431764,0,1.0,0.0,-0.5
1,3,2,74,-1.6,0.468329,1,1.0,1.0,1.6
1,3,2,75,1.6,0.352357,0,1.0,1.0,-1.6
1,3,2,76,-1.6,0.385005,1,1.0,1.0,1.6
1,3,2,77,1.6,0.337297,0,1.0,1.0,-1.6
1,3,2,78,-0.2,0.52188,0,-1.0,1.0,1.6
1,3,2,79,0.2,0.540804,1,-1.0,-1.0,-0.2
1,3,2,80,0.8,0.389861,0,1.0,-1.0,0.2
1,3,2,81,0.8,0.677,1,-1.0,1.0,0.8
1,3,2,82,-0.5,0.609414,1,1.0,-1.0,0.8
1,3,2,83,0.2,0.43955,0,1.0,1.0,-0.5
1,3,2,84,1.6,0.532978,0,1.0,1.0,0.2
1,3,2,85,1.6,0.375188,0,1.0,1.0,1.6
1,3,2,86,-0.8,0.470671,1,1.0,1.0,1.6
1,3,2,87,-0.5,0.267357,0,-1.0,1.0,-0.8
1,3,2,88,0.5,0.366498,1,-1.0,-1.0,-0.5
1,3,2,89,-1.6,0.222618,0,-1.0,-1.0,0.5
1,3,2,90,-1.6,0.388502,1,1.0,-1.0,-1.6
1,3,2,91,-0.2,0.30057,0,-1.0,1.0,-1.6
1,3,2,92,0.5,0.358667,1,-1.0,-1.0,-0.2
1,3,2,93,1.6,0.184275,0,1.0,-1.0,0.5
1,3,2,94,-1.6,0.30265,1,1.0,1.0,1.6
1,3,2,95,0.2,0.241652,0,1.0,1.0,-1.6
1,3,2,96,0.5,0.214798,1,-1.0,1.0,0.2
1,3,2,97,0.8,0.254436,0,1.0,-1.0,0.5
1,3,2,98,0.5,0.226327,1,-1.0,1.0,0.8
1,3,2,99,0.8,0.128593,0,1.0,-1.0,0.5
1,3,2,100,0.5,0.266363,1,-1.0,1.0,0.8
1,3,2,101,-0.8,0.118513,0,-1.0,-1.0,0.5
1,3,2,102,-0.2,0.344526,1,1.0,-1.0,-0.8
1,3,2,103,-0.5,0.258464,0,-1.0,1.0,-0.2
1,3,2,104,0.5,0.294633,1,-1.0,-1.0,-0.5
1,3,2,105,0.8,0.154904,0,1.0,-1.0,0.5
1,3,2,106,-0.5,0.258574,1,1.0,1.0,0.8
1,3,2,107,0.8,0.216319,0,1.0,1.0,-0.5
1,3,2,108,-0.2,0.214051,1,1.0,1.0,0.8
1,3,2,109,-0.2,0.25315,0,-1.0,1.0,-0.2
1,3,2,110,-0.5,0.344784,1,1.0,-1.0,-0.2
1,3,2,111,0.8,0.379194,0,1.0,1.0,-0.5
1,3,2,112,0.5,0.562304,1,-1.0,1.0,0.8
1,3,2,113,-0.2,0.571855,0,-1.0,-1.0,0.5
1,3,2,114,0.2,0.610938,1,-1.0,-1.0,-0.2
1,3,2,115,1.6,0.393909,0,1.0,-1.0,0.2
1,3,2,116,-0.5,0.425135,1,1.0,1.0,1.6
1,3,2,117,-0.5,0.279202,0,-1.0,1.0,-0.5
1,3,2,118,0.2,0.411359,1,-1.0,-1.0,-0.5
1,3,2,119,0.5,0.290038,0,1.0,-1.0,0.2
1,3,2,120,0.5,0.43849,1,-1.0,1.0,0.5
1,3,2,121,-0.2,0.306671,0,-1.0,-1.0,0.5
1,3,2,122,-0.8,0.357532,1,1.0,-1.0,-0.2
1,3,2,123,-0.8,0.270286,0,-1.0,1.0,-0.8
1,3,2,124,-0.2,0.346136,1,1.0,-1.0,-0.8
1,3,2,125,0.5,0.32372,0,1.0,1.0,-0.2
1,3,2,126,-0.5,0.429717,1,1.0,1.0,0.5
1,3,2,127,0.5,0.291885,0,1.0,1.0,-0.5
1,3,2,128,0.2,0.542985,1,-1.0,1.0,0.5
1,1,3,1,-0.5,0.790654,1,1.0,0.0,-100.0
1,1,3,2,0.8,0.398017,0,1.0,1.0,-0.5
1,1,3,3,1.6,0.421082,0,1.0,1.0,0.8
1,1,3,4,-0.2,0.427234,1,1.0,1.0,1.6
1,1,3,5,-0.8,0.705117,1,1.0,1.0,-0.2
1,1,3,6,-0.5,0.47601,1,1.0,1.0,-0.8
1,1,3,7,-0.2,0.576107,1,1.0,1.0,-0.5
1,1,3,8,0.2,0.480038,0,1.0,1.0,-0.2
1,1,3,9,-0.5,0.508033,1,1.0,1.0,0.2
1,1,3,10,0.2,0.406899,0,1.0,1.0,-0.5
1,1,3,11,0.5,0.517596,1,-1.0,1.0,0.2
1,1,3,12,-0.5,0.543605,1,1.0,-1.0,0.5
1,1,3,13,-0.8,0.473014,1,1.0,1.0,-0.5
1,1,3,14,-0.5,0.413311,0,-1.0,1.0,-0.8
1,1,3,15,-0.2,0.627711,0,-1.0,-1.0,-0.5
1,1,3,16,-0.2,0.529656,1,1.0,-1.0,-0.2
1,1,3,17,0.2,0.811945,1,-1.0,1.0,-0.2
1,1,3,18,-0.8,0.426591,1,1.0,-1.0,0.2
1,1,3,19,-0.5,0.440715,1,1.0,1.0,-0.8
1,1,3,20,0.5,0.438285,0,1.0,1.0,-0.5
1,1,3,21,-1.6,0.451331,1,1.0,1.0,0.5
1,1,3,22,0.8,0.480268,0,1.0,1.0,-1.6
1,1,3,23,0.5,0.540273,0,1.0,1.0,0.8
1,1,3,24,-0.2,0.5736,0,-1.0,1.0,0.5
1,1,3,25,0.2,0.461768,0,1.0,-1.0,-0.2
1,1,3,26,-0.5,0.586562,0,-1.0,1.0,0.2
1,1,3,27,-0.2,0.505829,0,-1.0,-1.0,-0.5
1,1,3,28,1.6,0.50062,0,1.0,-1.0,-0.2
1,1,3,30,0.2,0.513362,0,1.0,0.0,0.2
1,1,3,31,-0.5,0.46819,0,-1.0,1.0,0.2
1,1,3,32,-0.2,0.552123,1,1.0,-1.0,-0.5
1,1,3,33,0.2,0.472699,0,1.0,1.0,-0.2
1,1,3,34,0.2,0.588929,0,1.0,1.0,0.2
1,1,3,35,-0.2,0.412229,0,-1.0,1.0,0.2
1,1,3,36,-0.2,0.706834,1,1.0,-1.0,-0.2
1,1,3,37,1.6,0.453625,0,1.0,1.0,-0.2
1,1,3,38,-1.6,0.482414,1,1.0,1.0,1.6
1,1,3,39,0.8,0.581887,0,1.0,1.0,-1.6
1,1,3,40,0.8,0.437151,0,1.0,1.0,0.8
1,1,3,41,0.5,0.434541,0,1.0,1.0,0.8
1,1,3,42,-0.8,0.616018,0,-1.0,1.0,0.5
1,1,3,43,-0.5,0.669914,1,1.0,-1.0,-0.8
1,1,3,44,-0.2,0.530044,0,-1.0,1.0,-0.5
1,1,3,45,0.5,0.884215,0,1.0,-1.0,-0.2
1,1,3,46,-0.8,0.607491,1,1.0,1.0,0.5
1,1,3,47,0.5,0.526467,0,1.0,1.0,-0.8
1,1,3,48,-0.8,0.560337,0,-1.0,1.0,0.5
1,1,3,49,0.2,0.552957,0,1.0,-1.0,-0.8
1,1,3,50,0.2,0.545737,0,1.0,1.0,0.2
1,1,3,51,0.5,0.483313,0,1.0,1.0,0.2
1,1,3,52,0.5,0.478567,0,1.0,1.0,0.5
1,1,3,53,0.8,0.402478,0,1.0,1.0,0.5
1,1,3,54,0.8,0.361508,0,1.0,1.0,0.8
1,1,3,55,-0.2,0.522018,0,-1.0,1.0,0.8
1,1,3,56,0.5,0.396103,0,1.0,-1.0,-0.2
1,1,3,57,-0.5,0.44338,1,1.0,1.0,0.5
1,1,3,58,-1.6,0.456897,1,1.0,1.0,-0.5
1,1,3,59,0.5,0.429494,0,1.0,1.0,-1.6
1,1,3,60,0.2,0.467614,1,-1.0,1.0,0.5
1,1,3,61,-0.2,0.447413,1,1.0,-1.0,0.2
1,1,3,62,0.8,0.597105,0,1.0,1.0,-0.2
1,1,3,63,0.2,0.804301,1,-1.0,1.0,0.8
1,1,3,64,0.2,0.547196,0,1.0,-1.0,0.2
1,1,3,65,0.8,0.652604,0,1.0,1.0,0.2
1,1,3,66,0.5,0.697147,1,-1.0,1.0,0.8
1,1,3,68,-0.5,0.562892,1,1.0,0.0,0.2
1,1,3,69,-0.5,0.547487,1,1.0,1.0,-0.5
1,1,3,70,0.8,0.492926,0,1.0,1.0,-0.5
1,1,3,71,-1.6,0.528322,1,1.0,1.0,0.8
1,1,3,72,0.2,0.578456,0,1.0,1.0,-1.6
1,1,3,73,-0.5,0.458378,1,1.0,1.0,0.2
1,1,3,74,1.6,0.415235,0,1.0,1.0,-0.5
1,1,3,75,0.5,0.630001,0,1.0,1.0,1.6
1,1,3,76,0.2,0.524009,0,1.0,1.0,0.5
1,1,3,77,-0.2,0.485827,1,1.0,1.0,0.2
1,1,3,78,-1.6,0.457248,1,1.0,1.0,-0.2
1,1,3,79,0.5,0.526058,0,1.0,1.0,-1.6
1,1,3,80,-1.6,0.456199,1,1.0,1.0,0.5
1,1,3,81,-0.8,0.452785,0,-1.0,1.0,-1.6
1,1,3,82,0.2,0.713547,0,1.0,-1.0,-0.8
1,1,3,83,-0.8,0.500276,1,1.0,1.0,0.2
1,1,3,84,0.5,0.567186,0,1.0,1.0,-0.8
1,1,3,85,0.5,0.487169,0,1.0,1.0,0.5
1,1,3,86,0.5,0.55443,0,1.0,1.0,0.5
1,1,3,87,-0.5,0.475185,1,1.0,1.0,0.5
1,1,3,88,0.2,0.527208,1,-1.0,1.0,-0.5
1,1,3,89,0.2,0.809359,1,-1.0,-1.0,0.2
1,1,3,90,1.6,0.479973,0,1.0,-1.0,0.2
1,1,3,91,0.2,0.636239,0,1.0,1.0,1.6
1,1,3,92,0.5,0.537523,0,1.0,1.0,0.2
1,1,3,93,-0.2,0.570768,1,1.0,1.0,0.5
1,1,3,94,-0.2,0.491027,1,1.0,1.0,-0.2
1,1,3,95,0.5,0.614485,0,1.0,1.0,-0.2
1,1,3,96,-0.8,0.461154,1,1.0,1.0,0.5
1,1,3,97,-0.8,0.433815,1,1.0,1.0,-0.8
1,1,3,98,-0.5,0.503112,1,1.0,1.0,-0.8
1,1,3,99,-0.2,0.449701,1,1.0,1.0,-0.5
1,1,3,100,0.8,0.670534,0,1.0,1.0,-0.2
1,1,3,102,-0.8,0.439305,1,1.0,0.0,0.5
1,1,3,103,-0.2,0.516672,1,1.0,1.0,-0.8
1,1,3,104,0.2,0.598652,1,-1.0,1.0,-0.2
1,1,3,105,-0.2,0.41426,1,1.0,-1.0,0.2
1,1,3,106,0.2,0.453046,1,-1.0,1.0,-0.2
1,1,3,107,0.2,0.481498,1,-1.0,-1.0,0.2
1,1,3,108,-0.5,0.413724,1,1.0,-1.0,0.2
1,1,3,109,-0.2,0.412511,1,1.0,1.0,-0.5
1,1,3,110,-1.6,0.395077,1,1.0,1.0,-0.2
1,1,3,111,1.6,0.482597,0,1.0,1.0,-1.6
1,1,3,112,-0.5,0.478566,1,1.0,1.0,1.6
1,1,3,113,-0.8,0.554605,1,1.0,1.0,-0.5
1,1,3,114,-0.2,0.651339,1,1.0,1.0,-0.8
1,1,3,115,-0.5,0.439935,1,1.0,1.0,-0.2
1,1,3,116,-0.2,0.397599,1,1.0,1.0,-0.5
1,1,3,117,-0.2,0.420855,1,1.0,1.0,-0.2
1,1,3,118,1.6,0.522852,0,1.0,1.0,-0.2
1,1,3,120,-1.6,0.463152,1,1.0,0.0,0.8
1,1,3,121,0.5,0.499802,0,1.0,1.0,-1.6
1,1,3,122,-0.5,0.61455,1,1.0,1.0,0.5
1,1,3,123,-0.2,0.717175,1,1.0,1.0,-0.5
1,1,3,124,0.2,0.511137,1,-1.0,1.0,-0.2
1,1,3,125,0.8,0.562102,1,-1.0,-1.0,0.2
1,1,3,126,-0.2,0.458835,1,1.0,-1.0,0.8
1,1,3,127,1.6,0.519367,0,1.0,1.0,-0.2
1,1,3,128,-0.5,0.481478,1,1.0,1.0,1.6
1,2,3,1,0.2,0.607315,0,1.0,0.0,-100.0
1,2,3,2,0.8,0.429655,0,1.0,1.0,0.2
1,2,3,3,-0.2,0.476112,1,1.0,1.0,0.8
1,2,3,4,0.8,0.351888,0,1.0,1.0,-0.2
1,2,3,5,-1.6,0.400465,1,1.0,1.0,0.8
1,2,3,6,0.2,0.343288,0,1.0,1.0,-1.6
1,2,3,7,0.5,0.400622,0,1.0,1.0,0.2
1,2,3,8,-0.5,0.44744,1,1.0,1.0,0.5
1,2,3,9,0.8,0.380873,0,1.0,1.0,-0.5
1,2,3,10,0.5,0.356756,0,1.0,1.0,0.8
1,2,3,11,0.5,0.405542,0,1.0,1.0,0.5
1,2,3,12,-0.2,0.38838,1,1.0,1.0,0.5
1,2,3,13,0.5,0.36367,0,1.0,1.0,-0.2
1,2,3,14,-0.5,0.460512,0,-1.0,1.0,0.5
1,2,3,15,-0.8,0.345066,0,-1.0,-1.0,-0.5
1,2,3,16,-0.5,0.386506,0,-1.0,-1.0,-0.8
1,2,3,17,-0.2,0.441728,0,-1.0,-1.0,-0.5
1,2,3,18,0.5,0.367213,0,1.0,-1.0,-0.2
1,2,3,19,-0.5,0.399226,0,-1.0,1.0,0.5
1,2,3,20,-0.2,0.405987,0,-1.0,-1.0,-0.5
1,2,3,21,0.5,0.404616,0,1.0,-1.0,-0.2
1,2,3,22,0.2,0.42742,0,1.0,1.0,0.5
1,2,3,23,1.6,0.345526,0,1.0,1.0,0.2
1,2,3,24,-0.8,0.450767,1,1.0,1.0,1.6
1,2,3,25,0.5,0.415708,0,1.0,1.0,-0.8
1,2,3,26,0.2,0.509614,0,1.0,1.0,0.5
1,2,3,27,-0.5,0.472419,1,1.0,1.0,0.2
1,2,3,28,-0.2,0.372377,0,-1.0,1.0,-0.5
1,2,3,29,-0.5,0.580429,0,-1.0,-1.0,-0.2
1,2,3,30,0.2,0.356516,0,1.0,-1.0,-0.5
1,2,3,31,0.5,0.373316,0,1.0,1.0,0.2
1,2,3,32,-0.8,0.405379,0,-1.0,1.0,0.5
1,2,3,33,0.5,0.387907,0,1.0,-1.0,-0.8
1,2,3,34,0.5,0.41132,0,1.0,1.0,0.5
1,2,3,35,-0.5,0.434072,0,-1.0,1.0,0.5
1,2,3,36,-0.2,0.367437,0,-1.0,-1.0,-0.5
1,2,3,37,-0.2,0.383633,0,-1.0,-1.0,-0.2
1,2,3,38,0.2,0.326911,0,1.0,-1.0,-0.2
1,2,3,39,0.2,0.376957,0,1.0,1.0,0.2
1,2,3,40,0.5,0.337053,0,1.0,1.0,0.2
1,2,3,41,-0.5,0.39444,0,-1.0,1.0,0.5
1,2,3,42,-0.2,0.33785,0,-1.0,-1.0,-0.5
1,2,3,43,0.8,0.387189,0,1.0,-1.0,-0.2
1,2,3,44,-0.2,0.330762,0,-1.0,1.0,0.8
1,2,3,45,0.5,0.388531,0,1.0,-1.0,-0.2
1,2,3,46,-0.5,0.316062,0,-1.0,1.0,0.5
1,2,3,47,0.2,0.430184,0,1.0,-1.0,-0.5
1,2,3,48,0.2,0.292276,0,1.0,1.0,0.2
1,2,3,49,0.8,0.471668,0,1.0,1.0,0.2
1,2,3,50,-1.6,0.507462,1,1.0,1.0,0.8
1,2,3,51,-0.2,0.406273,0,-1.0,1.0,-1.6
1,2,3,52,-0.2,0.604972,0,-1.0,-1.0,-0.2
1,2,3,53,-1.6,0.411651,1,1.0,-1.0,-0.2
1,2,3,54,0.8,0.338284,0,1.0,1.0,-1.6
1,2,3,55,0.5,0.36376,0,1.0,1.0,0.8
1,2,3,56,-0.2,0.460495,1,1.0,1.0,0.5
1,2,3,57,0.5,0.329186,0,1.0,1.0,-0.2
1,2,3,58,-0.8,0.419275,1,1.0,1.0,0.5
1,2,3,59,0.2,0.36123,0,1.0,1.0,-0.8
1,2,3,60,-0.5,0.514097,0,-1.0,1.0,0.2
1,2,3,61,-0.2,0.452933,0,-1.0,-1.0,-0.5
1,2,3,62,0.5,0.409546,0,1.0,-1.0,-0.2
1,2,3,63,-0.8,0.41607,1,1.0,1.0,0.5
1,2,3,64,-0.5,0.422304,0,-1.0,1.0,-0.8
1,2,3,65,-0.2,0.396378,0,-1.0,-1.0,-0.5
1,2,3,67,0.5,0.377071,0,1.0,0.0,-0.5
1,2,3,68,1.6,0.353249,0,1.0,1.0,0.5
1,2,3,69,-0.8,0.401848,0,-1.0,1.0,1.6
1,2,3,70,-0.5,0.400479,0,-1.0,-1.0,-0.8
1,2,3,71,0.2,0.447426,0,1.0,-1.0,-0.5
1,2,3,72,-0.5,0.508667,1,1.0,1.0,0.2
1,2,3,73,1.6,0.407399,0,1.0,1.0,-0.5
1,2,3,74,1.6,0.398172,0,1.0,1.0,1.6
1,2,3,75,0.2,0.493649,0,1.0,1.0,1.6
1,2,3,76,0.5,0.344818,0,1.0,1.0,0.2
1,2,3,77,-0.2,0.546361,0,-1.0,1.0,0.5
1,2,3,78,0.2,0.395793,0,1.0,-1.0,-0.2
1,2,3,79,1.6,0.37921,0,1.0,1.0,0.2
1,2,3,80,-0.2,0.387084,0,-1.0,1.0,1.6
1,2,3,81,0.8,0.426641,0,1.0,-1.0,-0.2
1,2,3,82,0.2,0.472511,0,1.0,1.0,0.8
1,2,3,83,-0.2,0.484447,0,-1.0,1.0,0.2
1,2,3,84,0.2,0.439999,0,1.0,-1.0,-0.2
1,2,3,85,0.8,0.397436,0,1.0,1.0,0.2
1,2,3,87,-0.5,0.434204,0,-1.0,0.0,-0.8
1,2,3,88,1.6,0.479725,0,1.0,-1.0,-0.5
1,2,3,89,-0.2,0.435606,0,-1.0,1.0,1.6
1,2,3,90,0.2,0.425056,0,1.0,-1.0,-0.2
1,2,3,91,0.8,0.407085,0,1.0,1.0,0.2
1,2,3,92,1.6,0.405769,0,1.0,1.0,0.8
1,2,3,93,0.2,0.420511,0,1.0,1.0,1.6
1,2,3,94,-0.8,0.538428,1,1.0,1.0,0.2
1,2,3,95,-1.6,0.363949,0,-1.0,1.0,-0.8
1,2,3,96,0.2,0.420618,0,1.0,-1.0,-1.6
1,2,3,97,-0.2,0.554863,0,-1.0,1.0,0.2
1,2,3,98,0.8,0.419416,0,1.0,-1.0,-0.2
1,2,3,99,0.2,0.449647,0,1.0,1.0,0.8
1,2,3,100,0.2,0.430103,0,1.0,1.0,0.2
1,2,3,101,-0.2,0.428443,0,-1.0,1.0,0.2
1,2,3,102,-0.5,0.458326,0,-1.0,-1.0,-0.2
1,2,3,103,0.8,0.383048,0,1.0,-1.0,-0.5
1,2,3,104,-0.2,0.422359,0,-1.0,1.0,0.8
1,2,3,105,-1.6,0.428327,1,1.0,-1.0,-0.2
1,2,3,106,0.2,0.426652,0,1.0,1.0,-1.6
1,2,3,107,-0.2,0.408548,0,-1.0,1.0,0.2
1,2,3,108,-1.6,0.423415,0,-1.0,-1.0,-0.2
1,2,3,109,0.8,0.365276,0,1.0,-1.0,-1.6
1,2,3,110,-0.5,0.429459,0,-1.0,1.0,0.8
1,2,3,111,-0.8,0.44365,0,-1.0,-1.0,-0.5
1,2,3,112,-0.8,0.513127,0,-1.0,-1.0,-0.8
1,2,3,113,-0.5,0.41969,0,-1.0,-1.0,-0.8
1,2,3,114,-0.8,0.425543,0,-1.0,-1.0,-0.5
1,2,3,115,0.2,0.40763,0,1.0,-1.0,-0.8
1,2,3,116,-1.6,0.526506,1,1.0,1.0,0.2
1,2,3,117,-0.5,0.40052,0,-1.0,1.0,-1.6
1,2,3,118,-0.5,0.471144,0,-1.0,-1.0,-0.5
1,2,3,119,0.5,0.411177,0,1.0,-1.0,-0.5
1,2,3,121,0.2,0.484688,0,1.0,0.0,-0.2
1,2,3,122,0.2,0.448125,0,1.0,1.0,0.2
1,2,3,123,0.5,0.477484,0,1.0,1.0,0.2
1,2,3,124,-0.8,0.46552,0,-1.0,1.0,0.5
1,2,3,125,1.6,0.349742,0,1.0,-1.0,-0.8
1,2,3,126,0.5,0.430272,0,1.0,1.0,1.6
1,2,3,127,-1.6,0.540356,1,1.0,1.0,0.5
1,2,3,128,-0.2,0.37373,0,-1.0,1.0,-1.6
1,3,3,1,0.2,0.558924,0,1.0,0.0,-100.0
1,3,3,2,-0.8,0.703398,1,1.0,1.0,0.2
1,3,3,3,-0.2,0.602215,0,-1.0,1.0,-0.8
1,3,3,5,-0.2,0.457716,0,-1.0,0.0,-0.2
1,3,3,6,-0.2,0.438346,0,-1.0,-1.0,-0.2
1,3,3,7,-0.2,0.419807,0,-1.0,-1.0,-0.2
1,3,3,8,0.5,0.377981,0,1.0,-1.0,-0.2
1,3,3,9,-0.2,0.369811,0,-1.0,1.0,0.5
1,3,3,10,0.2,0.394064,0,1.0,-1.0,-0.2
1,3,3,11,-0.2,0.433233,0,-1.0,1.0,0.2
1,3,3,12,0.2,0.598798,0,1.0,-1.0,-0.2
1,3,3,13,0.8,0.446175,0,1.0,1.0,0.2
1,3,3,14,0.2,0.579423,0,1.0,1.0,0.8
1,3,3,15,0.8,0.435439,0,1.0,1.0,0.2
1,3,3,16,-0.5,0.464933,1,1.0,1.0,0.8
1,3,3,17,0.8,0.421742,0,1.0,1.0,-0.5
1,3,3,18,-0.8,0.443753,1,1.0,1.0,0.8
1,3,3,19,-0.2,0.561156,0,-1.0,1.0,-0.8
1,3,3,20,-1.6,0.425863,1,1.0,-1.0,-0.2
1,3,3,21,0.5,0.343967,0,1.0,1.0,-1.6
1,3,3,22,-0.5,0.433301,1,1.0,1.0,0.5
1,3,3,23,-0.5,0.366686,0,-1.0,1.0,-0.5
1,3,3,24,-0.5,0.374728,1,1.0,-1.0,-0.5
1,3,3,25,0.2,0.398696,0,1.0,1.0,-0.5
1,3,3,26,-0.5,0.405234,1,1.0,1.0,0.2
1,3,3,27,-0.2,0.404088,0,-1.0,1.0,-0.5
1,3,3,28,0.5,0.754937,0,1.0,-1.0,-0.2
1,3,3,29,-0.2,0.435678,0,-1.0,1.0,0.5
1,3,3,30,0.8,0.433022,0,1.0,-1.0,-0.2
1,3,3,31,-1.6,0.590446,1,1.0,1.0,0.8
1,3,3,32,-0.2,0.38984,0,-1.0,1.0,-1.6
1,3,3,33,0.2,0.405202,0,1.0,-1.0,-0.2
1,3,3,34,0.2,0.371959,0,1.0,1.0,0.2
1,3,3,35,0.5,0.403955,0,1.0,1.0,0.2
1,3,3,36,-0.8,0.442649,0,-1.0,1.0,0.5
1,3,3,37,-0.2,0.464217,0,-1.0,-1.0,-0.8
1,3,3,38,-1.6,0.508792,0,-1.0,-1.0,-0.2
1,3,3,39,1.6,0.415497,0,1.0,-1.0,-1.6
1,3,3,40,0.5,0.581602,0,1.0,1.0,1.6
1,3,3,41,0.5,0.397638,0,1.0,1.0,0.5
1,3,3,42,-0.8,0.540946,1,1.0,1.0,0.5
1,3,3,43,-0.2,0.350362,0,-1.0,1.0,-0.8
1,3,3,44,-0.8,0.407,0,-1.0,-1.0,-0.2
1,3,3,45,-0.2,0.501864,0,-1.0,-1.0,-0.8
1,3,3,46,0.5,0.408547,0,1.0,-1.0,-0.2
1,3,3,47,0.2,0.43929,0,1.0,1.0,0.5
1,3,3,48,0.2,0.39672,0,1.0,1.0,0.2
1,3,3,49,0.2,0.276033,0,1.0,1.0,0.2
1,3,3,50,0.2,0.296122,0,1.0,1.0,0.2
1,3,3,51,0.5,0.387549,0,1.0,1.0,0.2
1,3,3,52,0.2,0.282738,0,1.0,1.0,0.5
1,3,3,53,-0.5,0.342365,0,-1.0,1.0,0.2
1,3,3,54,0.2,0.350389,0,1.0,-1.0,-0.5
1,3,3,55,-0.5,0.367184,0,-1.0,1.0,0.2
1,3,3,56,0.8,0.399027,0,1.0,-1.0,-0.5
1,3,3,57,-0.8,0.581912,0,-1.0,1.0,0.8
1,3,3,58,-0.2,0.381804,0,-1.0,-1.0,-0.8
1,3,3,59,0.2,0.421861,0,1.0,-1.0,-0.2
1,3,3,60,-0.2,0.556015,0,-1.0,1.0,0.2
1,3,3,61,0.5,0.428701,0,1.0,-1.0,-0.2
1,3,3,62,0.2,0.418776,0,1.0,1.0,0.5
1,3,3,63,-0.5,0.400673,0,-1.0,1.0,0.2
1,3,3,64,0.2,0.335653,0,1.0,-1.0,-0.5
1,3,3,65,-0.8,0.536969,1,1.0,1.0,0.2
1,3,3,66,0.2,0.450415,0,1.0,1.0,-0.8
1,3,3,67,0.2,0.46292,1,-1.0,1.0,0.2
1,3,3,68,-0.5,0.675741,0,-1.0,-1.0,0.2
1,3,3,69,-0.5,0.43965,0,-1.0,-1.0,-0.5
1,3,3,70,-0.5,0.453253,0,-1.0,-1.0,-0.5
1,3,3,71,-0.8,0.585886,1,1.0,-1.0,-0.5
1,3,3,72,-0.5,0.465375,0,-1.0,1.0,-0.8
1,3,3,73,1.6,0.406007,0,1.0,-1.0,-0.5
1,3,3,74,-1.6,0.468881,1,1.0,1.0,1.6
1,3,3,75,1.6,0.35279,0,1.0,1.0,-1.6
1,3,3,76,-1.6,0.361391,1,1.0,1.0,1.6
1,3,3,77,1.6,0.258279,0,1.0,1.0,-1.6
1,3,3,78,-0.2,0.383016,1,1.0,1.0,1.6
1,3,3,79,0.2,0.310357,0,1.0,1.0,-0.2
1,3,3,80,0.8,0.393076,1,-1.0,1.0,0.2
1,3,3,81,0.8,0.46448,0,1.0,-1.0,0.8
1,3,3,82,-0.5,0.405154,1,1.0,1.0,0.8
1,3,3,83,0.2,0.339825,0,1.0,1.0,-0.5
1,3,3,84,1.6,0.533097,0,1.0,1.0,0.2
1,3,3,85,1.6,0.414562,0,1.0,1.0,1.6
1,3,3,86,-0.8,0.437277,1,1.0,1.0,1.6
1,3,3,87,-0.5,0.33859,0,-1.0,1.0,-0.8
1,3,3,88,0.5,0.524148,0,1.0,-1.0,-0.5
1,3,3,89,-1.6,0.493948,1,1.0,1.0,0.5
1,3,3,90,-1.6,0.35347,0,-1.0,1.0,-1.6
1,3,3,91,-0.2,0.434226,0,-1.0,-1.0,-1.6
1,3,3,92,0.5,0.519656,1,-1.0,-1.0,-0.2
1,3,3,93,1.6,0.393679,0,1.0,-1.0,0.5
1,3,3,94,-1.6,0.441013,1,1.0,1.0,1.6
1,3,3,95,0.2,0.270629,0,1.0,1.0,-1.6
1,3,3,96,0.5,0.5303,1,-1.0,1.0,0.2
1,3,3,97,0.8,0.3647,0,1.0,-1.0,0.5
1,3,3,98,0.5,0.573324,1,-1.0,1.0,0.8
1,3,3,99,0.8,0.333361,0,1.0,-1.0,0.5
1,3,3,100,0.5,0.67882,1,-1.0,1.0,0.8
1,3,3,101,-0.8,0.426875,0,-1.0,-1.0,0.5
1,3,3,102,-0.2,0.568965,1,1.0,-1.0,-0.8
1,3,3,103,-0.5,0.537158,0,-1.0,1.0,-0.2
1,3,3,104,0.5,0.530379,0,1.0,-1.0,-0.5
1,3,3,105,0.8,0.644481,1,-1.0,1.0,0.5
1,3,3,106,-0.5,0.513744,1,1.0,-1.0,0.8
1,3,3,107,0.8,0.452529,0,1.0,1.0,-0.5
1,3,3,108,-0.2,0.449234,1,1.0,1.0,0.8
1,3,3,109,-0.2,0.373863,0,-1.0,1.0,-0.2
1,3,3,110,-0.5,0.365895,1,1.0,-1.0,-0.2
1,3,3,111,0.8,0.374226,0,1.0,1.0,-0.5
1,3,3,112,0.5,0.622237,0,1.0,1.0,0.8
1,3,3,113,-0.2,0.436261,1,1.0,1.0,0.5
1,3,3,114,0.2,0.401575,0,1.0,1.0,-0.2
1,3,3,115,1.6,0.704155,0,1.0,1.0,0.2
1,3,3,116,-0.5,0.435074,1,1.0,1.0,1.6
1,3,3,117,-0.5,0.368263,0,-1.0,1.0,-0.5
1,3,3,118,0.2,0.376327,1,-1.0,-1.0,-0.5
1,3,3,119,0.5,0.424606,0,1.0,-1.0,0.2
1,3,3,120,0.5,0.390521,1,-1.0,1.0,0.5
1,3,3,121,-0.2,0.397876,0,-1.0,-1.0,0.5
1,3,3,122,-0.8,0.42935,1,1.0,-1.0,-0.2
1,3,3,123,-0.8,0.419546,0,-1.0,1.0,-0.8
1,3,3,124,-0.2,0.449295,1,1.0,-1.0,-0.8
1,3,3,125,0.5,0.406217,0,1.0,1.0,-0.2
1,3,3,126,-0.5,0.445155,1,1.0,1.0,0.5
1,3,3,127,0.5,0.426313,0,1.0,1.0,-0.5
1,3,3,128,0.2,0.392315,1,-1.0,1.0,0.5
2,2,1,1,0.8,0.631239,0,1.0,0.0,-100.0
2,2,1,2,-1.6,0.50852,1,1.0,1.0,0.8
2,2,1,3,0.2,0.90312,1,-1.0,1.0,-1.6
2,2,1,4,0.5,0.530084,0,1.0,-1.0,0.2
2,2,1,5,-0.5,0.483999,1,1.0,1.0,0.5
2,2,1,6,0.8,0.543506,0,1.0,1.0,-0.5
2,2,1,7,0.5,0.672948,0,1.0,1.0,0.8
2,2,1,8,0.5,0.580814,1,-1.0,1.0,0.5
2,2,1,9,-0.2,0.532943,1,1.0,-1.0,0.5
2,2,1,10,0.5,0.502353,0,1.0,1.0,-0.2
2,2,1,11,-0.5,0.384899,1,1.0,1.0,0.5
2,2,1,12,-0.8,0.464392,1,1.0,1.0,-0.5
2,2,1,13,-0.5,0.445199,1,1.0,1.0,-0.8
2,2,1,14,0.2,0.394397,1,-1.0,1.0,-0.5
2,2,1,15,0.5,0.521851,1,-1.0,-1.0,0.2
2,2,1,16,-0.5,0.427892,1,1.0,-1.0,0.5
2,2,1,17,-0.2,0.665946,1,1.0,1.0,-0.5
2,2,1,18,0.5,0.630182,0,1.0,1.0,-0.2
2,2,1,19,0.2,0.612217,1,-1.0,1.0,0.5
2,2,1,20,1.6,0.522865,0,1.0,-1.0,0.2
2,2,1,21,-0.8,0.364915,1,1.0,1.0,1.6
2,2,1,22,0.5,0.525617,0,1.0,1.0,-0.8
2,2,1,23,0.2,0.36766,1,-1.0,1.0,0.5
2,2,1,24,-0.5,0.543781,1,1.0,-1.0,0.2
2,2,1,25,-0.2,0.601254,0,-1.0,1.0,-0.5
2,2,1,26,-0.2,0.391897,1,1.0,-1.0,-0.2
2,2,1,27,0.2,0.383334,1,-1.0,1.0,-0.2
2,2,1,28,0.5,0.510781,0,1.0,-1.0,0.2
2,2,1,29,-0.8,0.457489,1,1.0,1.0,0.5
2,2,1,30,0.5,0.590129,1,-1.0,1.0,-0.8
2,2,1,31,0.5,0.453555,0,1.0,-1.0,0.5
2,2,1,32,-0.5,0.538265,1,1.0,1.0,0.5
2,2,1,33,-0.2,0.363563,1,1.0,1.0,-0.5
2,2,1,34,-0.2,0.316213,1,1.0,1.0,-0.2
2,2,1,35,0.2,0.342413,1,-1.0,1.0,-0.2
2,2,1,36,0.2,0.351754,1,-1.0,-1.0,0.2
2,2,1,37,0.5,0.30437,1,-1.0,-1.0,0.2
2,2,1,38,-0.5,0.339125,1,1.0,-1.0,0.5
2,2,1,39,-0.2,0.516504,0,-1.0,1.0,-0.5
2,2,1,40,0.8,0.334528,1,-1.0,-1.0,-0.2
2,2,1,41,-0.2,0.447907,1,1.0,-1.0,0.8
2,2,1,42,0.5,0.373478,1,-1.0,1.0,-0.2
2,2,1,43,-0.5,0.389322,1,1.0,-1.0,0.5
2,2,1,44,0.2,0.420836,0,1.0,1.0,-0.5
2,2,1,45,0.2,0.506867,1,-1.0,1.0,0.2
2,2,1,46,0.8,0.493509,0,1.0,-1.0,0.2
2,2,1,47,-1.6,0.425069,1,1.0,1.0,0.8
2,2,1,48,-0.2,0.415151,0,-1.0,1.0,-1.6
2,2,1,49,-0.2,0.549792,1,1.0,-1.0,-0.2
2,2,1,50,-1.6,0.366511,0,-1.0,1.0,-0.2
2,2,1,51,0.8,0.646503,0,1.0,-1.0,-1.6
2,2,1,52,0.8,0.555866,1,-1.0,1.0,0.8
2,2,1,53,-0.2,0.604756,1,1.0,-1.0,0.8
2,2,1,54,0.5,0.579566,0,1.0,1.0,-0.2
2,2,1,55,-0.8,0.403423,1,1.0,1.0,0.5
2,2,1,56,0.2,0.546228,1,-1.0,1.0,-0.8
2,2,1,57,-0.5,0.499461,1,1.0,-1.0,0.2
2,2,1,58,-0.2,0.462186,1,1.0,1.0,-0.5
2,2,1,59,0.5,0.451031,1,-1.0,1.0,-0.2
2,2,1,60,-0.8,0.399807,1,1.0,-1.0,0.5
2,2,1,61,-0.5,0.454466,1,1.0,1.0,-0.8
2,2,1,62,-0.2,0.379084,1,1.0,1.0,-0.5
2,2,1,63,-0.5,0.419283,1,1.0,1.0,-0.2
2,2,1,64,0.5,0.553351,0,1.0,1.0,-0.5
2,2,1,65,1.6,0.586084,0,1.0,1.0,0.5
2,2,1,66,-0.8,0.665302,1,1.0,1.0,1.6
2,2,1,67,-0.5,0.886099,0,-1.0,1.0,-0.8
2,2,1,69,-0.5,0.4849,1,1.0,0.0,0.2
2,2,1,70,1.6,0.600181,0,1.0,1.0,-0.5
2,2,1,71,1.6,0.647006,0,1.0,1.0,1.6
2,2,1,72,0.2,0.556418,1,-1.0,1.0,1.6
2,2,1,73,0.5,0.725229,0,1.0,-1.0,0.2
2,2,1,74,-0.2,0.543241,1,1.0,1.0,0.5
2,2,1,75,0.2,0.65667,1,-1.0,1.0,-0.2
2,2,1,76,1.6,0.549475,0,1.0,-1.0,0.2
2,2,1,77,-0.2,0.374043,1,1.0,1.0,1.6
2,2,1,78,0.8,0.550111,0,1.0,1.0,-0.2
2,2,1,79,0.2,0.318903,1,-1.0,1.0,0.8
2,2,1,80,-0.2,0.504866,1,1.0,-1.0,0.2
2,2,1,81,0.2,0.411614,1,-1.0,1.0,-0.2
2,2,1,82,0.8,0.394321,1,-1.0,-1.0,0.2
2,2,1,83,-0.8,0.393754,1,1.0,-1.0,0.8
2,2,1,84,-0.2,0.609345,0,-1.0,1.0,-0.8
2,2,1,85,1.6,0.495817,0,1.0,-1.0,-0.2
2,2,1,86,-0.2,0.531278,1,1.0,1.0,1.6
2,2,1,87,0.2,0.525322,0,1.0,1.0,-0.2
2,2,1,88,0.8,0.359375,1,-1.0,1.0,0.2
2,2,1,89,1.6,0.456004,1,-1.0,-1.0,0.8
2,2,1,90,0.2,0.508795,0,1.0,-1.0,1.6
2,2,1,91,-0.8,0.583514,1,1.0,1.0,0.2
2,2,1,92,-1.6,0.374816,1,1.0,1.0,-0.8
2,2,1,93,0.2,0.446858,1,-1.0,1.0,-1.6
2,2,1,94,-0.2,0.572371,1,1.0,-1.0,0.2
2,2,1,95,0.8,0.388418,0,1.0,1.0,-0.2
2,2,1,96,0.2,0.53979,0,1.0,1.0,0.8
2,2,1,97,0.2,0.429247,0,1.0,1.0,0.2
2,2,1,98,-0.2,0.331327,0,-1.0,1.0,0.2
2,2,1,99,-0.5,0.653502,0,-1.0,-1.0,-0.2
2,2,1,100,0.8,0.625926,0,1.0,-1.0,-0.5
2,2,1,101,-0.2,0.448018,1,1.0,1.0,0.8
2,2,1,102,-1.6,0.501427,1,1.0,1.0,-0.2
2,2,1,103,0.2,0.552131,0,1.0,1.0,-1.6
2,2,1,104,-0.2,0.600908,0,-1.0,1.0,0.2
2,2,1,105,-1.6,0.455534,1,1.0,-1.0,-0.2
2,2,1,106,0.8,0.61241,0,1.0,1.0,-1.6
2,2,1,107,-0.5,0.403073,1,1.0,1.0,0.8
2,2,1,108,-0.8,0.609879,1,1.0,1.0,-0.5
2,2,1,109,-0.8,0.304493,1,1.0,1.0,-0.8
2,2,1,111,-0.8,0.444086,1,1.0,0.0,-0.5
2,2,1,112,0.2,0.377279,1,-1.0,1.0,-0.8
2,2,1,113,-1.6,0.409354,1,1.0,-1.0,0.2
2,2,1,114,-0.5,0.536114,1,1.0,1.0,-1.6
2,2,1,115,-0.5,0.425596,0,-1.0,1.0,-0.5
2,2,1,116,0.5,0.623361,0,1.0,-1.0,-0.5
2,2,1,117,-0.2,0.405607,1,1.0,1.0,0.5
2,2,1,118,0.5,0.364464,1,-1.0,1.0,-0.2
2,2,1,119,0.2,0.637163,1,-1.0,-1.0,0.5
2,2,1,120,0.5,0.690721,0,1.0,-1.0,0.2
2,2,1,121,-0.8,0.533908,1,1.0,1.0,0.5
2,2,1,122,1.6,0.663338,0,1.0,1.0,-0.8
2,2,1,123,0.5,0.715979,1,-1.0,1.0,1.6
2,2,1,124,-1.6,0.622007,1,1.0,-1.0,0.5
2,2,1,125,-0.2,0.595967,1,1.0,1.0,-1.6
2,2,1,126,-0.5,0.467556,1,1.0,1.0,-0.2
2,2,1,127,0.2,0.799725,0,1.0,1.0,-0.5
2,2,1,128,-0.5,0.62229,1,1.0,1.0,0.2
2,3,1,1,-0.2,0.531158,1,1.0,0.0,-100.0
2,3,1,3,-0.2,0.342016,1,1.0,0.0,-0.2
2,3,1,4,-0.2,0.431501,1,1.0,1.0,-0.2
2,3,1,5,0.5,0.309536,1,-1.0,1.0,-0.2
2,3,1,6,-0.2,0.392249,1,1.0,-1.0,0.5
2,3,1,7,0.2,0.463584,1,-1.0,1.0,-0.2
2,3,1,8,-0.2,0.396129,1,1.0,-1.0,0.2
2,3,1,9,0.2,0.355951,1,-1.0,1.0,-0.2
2,3,1,10,0.8,0.420441,1,-1.0,-1.0,0.2
2,3,1,11,-0.2,0.386561,1,1.0,-1.0,0.8
2,3,1,12,0.8,0.321919,1,-1.0,1.0,-0.2
2,3,1,13,-0.5,0.35591,1,1.0,-1.0,0.8
2,3,1,14,0.8,0.364646,1,-1.0,1.0,-0.5
2,3,1,15,-0.8,0.34131,1,1.0,-1.0,0.8
2,3,1,16,-0.2,0.36668,1,1.0,1.0,-0.8
2,3,1,17,-1.6,0.590692,1,1.0,1.0,-0.2
2,3,1,18,0.5,0.326095,1,-1.0,1.0,-1.6
2,3,1,19,-0.5,0.352114,1,1.0,-1.0,0.5
2,3,1,20,-0.5,0.392803,1,1.0,1.0,-0.5
2,3,1,21,-0.5,0.688484,1,1.0,1.0,-0.5
2,3,1,22,0.2,0.507684,0,1.0,1.0,-0.5
2,3,1,23,-0.5,0.334465,1,1.0,1.0,0.2
2,3,1,24,-0.2,0.551662,1,1.0,1.0,-0.5
2,3,1,25,0.5,0.384548,1,-1.0,1.0,-0.2
2,3,1,26,-0.2,0.383755,1,1.0,-1.0,0.5
2,3,1,27,0.8,0.607363,0,1.0,1.0,-0.2
2,3,1,28,-1.6,0.501895,1,1.0,1.0,0.8
2,3,1,29,-0.2,0.36069,1,1.0,1.0,-1.6
2,3,1,30,0.2,0.489521,1,-1.0,1.0,-0.2
2,3,1,31,0.2,0.484937,0,1.0,-1.0,0.2
2,3,1,32,0.5,0.600442,0,1.0,1.0,0.2
2,3,1,33,-0.8,0.654977,1,1.0,1.0,0.5
2,3,1,34,-0.2,0.395678,1,1.0,1.0,-0.8
2,3,1,35,-1.6,0.395259,1,1.0,1.0,-0.2
2,3,1,36,1.6,0.362472,1,-1.0,1.0,-1.6
2,3,1,37,0.5,0.491131,1,-1.0,-1.0,1.6
2,3,1,38,0.5,0.486535,1,-1.0,-1.0,0.5
2,3,1,39,-0.8,0.57796,0,-1.0,-1.0,0.5
2,3,1,40,-0.2,0.457942,0,-1.0,-1.0,-0.8
2,3,1,41,-0.8,0.494878,0,-1.0,-1.0,-0.2
2,3,1,42,-0.2,0.426169,1,1.0,-1.0,-0.8
2,3,1,43,0.5,0.368168,1,-1.0,1.0,-0.2
2,3,1,44,0.2,0.328279,1,-1.0,-1.0,0.5
2,3,1,45,0.2,0.338251,1,-1.0,-1.0,0.2
2,3,1,46,0.2,0.483671,1,-1.0,-1.0,0.2
2,3,1,47,0.2,0.479392,0,1.0,-1.0,0.2
2,3,1,48,0.5,0.435377,0,1.0,1.0,0.2
2,3,1,49,0.2,0.424439,1,-1.0,1.0,0.5
2,3,1,50,-0.5,0.446434,1,1.0,-1.0,0.2
2,3,1,51,0.2,0.395898,1,-1.0,1.0,-0.5
2,3,1,52,-0.5,0.339301,1,1.0,-1.0,0.2
2,3,1,53,0.8,0.284581,1,-1.0,1.0,-0.5
2,3,1,54,-0.8,0.312112,1,1.0,-1.0,0.8
2,3,1,55,-0.2,0.306846,1,1.0,1.0,-0.8
2,3,1,56,0.2,0.32581,1,-1.0,1.0,-0.2
2,3,1,57,-0.2,0.391587,0,-1.0,-1.0,0.2
2,3,1,58,0.5,0.182946,1,-1.0,-1.0,-0.2
2,3,1,59,0.2,0.366361,1,-1.0,-1.0,0.5
2,3,1,60,-0.5,0.310331,1,1.0,-1.0,0.2
2,3,1,61,0.2,0.35315,1,-1.0,1.0,-0.5
2,3,1,62,-0.8,0.313788,1,1.0,-1.0,0.2
2,3,1,63,0.2,0.324588,1,-1.0,1.0,-0.8
2,3,1,64,0.2,0.41469,0,1.0,-1.0,0.2
2,3,1,65,-0.5,0.333452,0,-1.0,1.0,0.2
2,3,1,66,-0.5,0.350639,1,1.0,-1.0,-0.5
2,3,1,67,-0.5,0.42331,1,1.0,1.0,-0.5
2,3,1,68,-0.8,0.293474,1,1.0,1.0,-0.5
2,3,1,69,-0.5,0.272877,1,1.0,1.0,-0.8
2,3,1,70,1.6,0.268849,1,-1.0,1.0,-0.5
2,3,1,71,-1.6,0.417014,1,1.0,-1.0,1.6
2,3,1,72,1.6,0.278997,1,-1.0,1.0,-1.6
2,3,1,73,-1.6,0.506771,1,1.0,-1.0,1.6
2,3,1,74,1.6,0.46975,0,1.0,1.0,-1.6
2,3,1,75,-0.2,0.625814,1,1.0,1.0,1.6
2,3,1,76,0.2,0.543818,0,1.0,1.0,-0.2
2,3,1,77,0.5,0.44135,1,-1.0,1.0,0.2
2,3,1,78,0.8,0.374755,1,-1.0,-1.0,0.5
2,3,1,79,-0.5,0.342755,1,1.0,-1.0,0.8
2,3,1,80,0.2,0.352224,1,-1.0,1.0,-0.5
2,3,1,81,1.6,0.408813,0,1.0,-1.0,0.2
2,3,1,82,1.6,0.47951,0,1.0,1.0,1.6
2,3,1,83,-0.8,0.339734,0,-1.0,1.0,1.6
2,3,1,84,-0.5,0.709215,0,-1.0,-1.0,-0.8
2,3,1,85,0.5,0.351806,0,1.0,-1.0,-0.5
2,3,1,86,-1.6,0.496462,1,1.0,1.0,0.5
2,3,1,87,-0.8,0.355777,1,1.0,1.0,-1.6
2,3,1,88,-0.2,0.604593,0,-1.0,1.0,-0.8
2,3,1,89,0.5,0.355845,1,-1.0,-1.0,-0.2
2,3,1,90,1.6,0.500017,0,1.0,-1.0,0.5
2,3,1,91,-1.6,0.366651,1,1.0,1.0,1.6
2,3,1,92,0.2,0.510849,0,1.0,1.0,-1.6
2,3,1,93,0.5,0.337819,1,-1.0,1.0,0.2
2,3,1,94,0.8,0.418888,0,1.0,-1.0,0.5
2,3,1,95,0.5,0.3929,1,-1.0,1.0,0.8
2,3,1,96,0.8,0.384482,0,1.0,-1.0,0.5
2,3,1,97,0.2,0.335601,1,-1.0,1.0,0.8
2,3,1,98,-0.8,0.345147,0,-1.0,-1.0,0.2
2,3,1,100,-0.5,0.504503,1,1.0,0.0,-0.2
2,3,1,101,0.5,0.379329,1,-1.0,1.0,-0.5
2,3,1,102,0.8,0.371301,1,-1.0,-1.0,0.5
2,3,1,103,-0.5,0.363366,1,1.0,-1.0,0.8
2,3,1,104,0.8,0.316042,1,-1.0,1.0,-0.5
2,3,1,105,-0.2,0.350236,1,1.0,-1.0,0.8
2,3,1,106,-0.2,0.470738,0,-1.0,1.0,-0.2
2,3,1,107,-0.5,0.410803,1,1.0,-1.0,-0.2
2,3,1,108,0.8,0.377675,1,-1.0,1.0,-0.5
2,3,1,109,0.2,0.425718,1,-1.0,-1.0,0.8
2,3,1,110,-0.2,0.375663,1,1.0,-1.0,0.2
2,3,1,111,0.2,0.327848,0,1.0,1.0,-0.2
2,3,1,112,1.6,0.361838,1,-1.0,1.0,0.2
2,3,1,113,-0.5,0.546485,1,1.0,-1.0,1.6
2,3,1,114,-0.5,0.38789,0,-1.0,1.0,-0.5
2,3,1,115,0.2,0.283985,1,-1.0,-1.0,-0.5
2,3,1,116,0.5,0.446733,1,-1.0,-1.0,0.2
2,3,1,117,0.5,0.32408,1,-1.0,-1.0,0.5
2,3,1,118,-0.2,0.214206,0,-1.0,-1.0,0.5
2,3,1,119,-0.8,0.628854,1,1.0,-1.0,-0.2
2,3,1,120,-0.8,0.547021,1,1.0,1.0,-0.8
2,3,1,121,-0.2,0.412456,1,1.0,1.0,-0.8
2,3,1,122,0.5,0.354962,1,-1.0,1.0,-0.2
2,3,1,123,-0.5,0.419763,1,1.0,-1.0,0.5
2,3,1,124,0.5,0.497698,1,-1.0,1.0,-0.5
2,3,1,125,0.2,0.565298,0,1.0,-1.0,0.5
2,3,1,126,-1.6,0.357762,1,1.0,1.0,0.2
2,3,1,127,0.5,0.550592,0,1.0,1.0,-1.6
2,3,1,128,0.8,0.503259,1,-1.0,1.0,0.5
2,1,2,2,-0.8,0.478714,1,1.0,0.0,0.2
2,1,2,3,-0.2,0.506874,1,1.0,1.0,-0.8
2,1,2,4,-0.2,0.645444,0,-1.0,1.0,-0.2
2,1,2,5,-0.2,0.682992,0,-1.0,-1.0,-0.2
2,1,2,6,-0.2,0.574407,1,1.0,-1.0,-0.2
2,1,2,7,-0.2,0.4942,1,1.0,1.0,-0.2
2,1,2,8,0.5,0.489856,0,1.0,1.0,-0.2
2,1,2,9,-0.2,0.413245,1,1.0,1.0,0.5
2,1,2,10,0.2,0.563722,0,1.0,1.0,-0.2
2,1,2,11,-0.2,0.548549,0,-1.0,1.0,0.2
2,1,2,12,0.2,0.389882,1,-1.0,-1.0,-0.2
2,1,2,13,0.8,0.469055,0,1.0,-1.0,0.2
2,1,2,14,0.2,0.472665,1,-1.0,1.0,0.8
2,1,2,15,0.8,0.405262,0,1.0,-1.0,0.2
2,1,2,16,-0.5,0.515459,1,1.0,1.0,0.8
2,1,2,17,0.8,0.485692,0,1.0,1.0,-0.5
2,1,2,18,-0.8,0.401305,0,-1.0,1.0,0.8
2,1,2,19,-0.2,0.503671,0,-1.0,-1.0,-0.8
2,1,2,20,-1.6,0.434468,1,1.0,-1.0,-0.2
2,1,2,21,0.5,0.495894,0,1.0,1.0,-1.6
2,1,2,22,-0.5,0.37931,1,1.0,1.0,0.5
2,1,2,23,-0.5,0.587508,0,-1.0,1.0,-0.5
2,1,2,24,-0.5,0.410726,1,1.0,-1.0,-0.5
2,1,2,25,0.2,0.449386,0,1.0,1.0,-0.5
2,1,2,26,-0.5,0.461995,1,1.0,1.0,0.2
2,1,2,27,-0.2,0.394892,0,-1.0,1.0,-0.5
2,1,2,28,0.5,0.466086,1,-1.0,-1.0,-0.2
2,1,2,29,-0.2,0.382248,0,-1.0,-1.0,0.5
2,1,2,30,0.8,0.526252,0,1.0,-1.0,-0.2
2,1,2,31,-1.6,0.400334,1,1.0,1.0,0.8
2,1,2,32,-0.2,0.439043,0,-1.0,1.0,-1.6
2,1,2,33,0.2,0.500396,0,1.0,-1.0,-0.2
2,1,2,34,0.2,0.39908,1,-1.0,1.0,0.2
2,1,2,35,0.5,0.437947,0,1.0,-1.0,0.2
2,1,2,36,-0.8,0.531219,1,1.0,1.0,0.5
2,1,2,37,-0.2,0.501338,0,-1.0,1.0,-0.8
2,1,2,38,-1.6,0.408151,1,1.0,-1.0,-0.2
2,1,2,39,1.6,0.487214,0,1.0,1.0,-1.6
2,1,2,40,0.5,0.442334,0,1.0,1.0,1.6
2,1,2,41,0.5,0.47963,1,-1.0,1.0,0.5
2,1,2,42,-0.8,0.403705,1,1.0,-1.0,0.5
2,1,2,43,-0.2,0.482481,0,-1.0,1.0,-0.8
2,1,2,44,-0.8,0.469796,1,1.0,-1.0,-0.2
2,1,2,45,-0.2,0.385906,1,1.0,1.0,-0.8
2,1,2,46,0.5,0.641306,0,1.0,1.0,-0.2
2,1,2,47,0.2,0.438719,1,-1.0,1.0,0.5
2,1,2,48,0.2,0.436059,0,1.0,-1.0,0.2
2,1,2,49,0.2,0.497318,1,-1.0,1.0,0.2
2,1,2,50,0.2,0.596851,0,1.0,-1.0,0.2
2,1,2,51,0.5,0.484201,1,-1.0,1.0,0.2
2,1,2,52,0.2,0.511431,0,1.0,-1.0,0.5
2,1,2,53,-0.5,0.442402,1,1.0,1.0,0.2
2,1,2,54,0.2,0.511801,0,1.0,1.0,-0.5
2,1,2,55,-0.5,0.506334,1,1.0,1.0,0.2
2,1,2,56,0.8,0.52535,0,1.0,1.0,-0.5
2,1,2,57,-0.8,0.575083,1,1.0,1.0,0.8
2,1,2,58,-0.2,0.567319,0,-1.0,1.0,-0.8
2,1,2,59,0.2,0.719175,0,1.0,-1.0,-0.2
2,1,2,60,-0.2,0.409265,0,-1.0,1.0,0.2
2,1,2,61,0.5,0.383958,0,1.0,-1.0,-0.2
2,1,2,62,0.2,0.30349,0,1.0,1.0,0.5
2,1,2,63,-0.5,0.394188,0,-1.0,1.0,0.2
2,1,2,64,0.2,0.433546,0,1.0,-1.0,-0.5
2,1,2,65,-0.8,0.486784,1,1.0,1.0,0.2
2,1,2,66,0.2,0.498383,0,1.0,1.0,-0.8
2,1,2,67,0.2,0.477714,1,-1.0,1.0,0.2
2,1,2,68,-0.5,0.577719,0,-1.0,-1.0,0.2
2,1,2,69,-0.5,0.417861,1,1.0,-1.0,-0.5
2,1,2,70,-0.5,0.415867,0,-1.0,1.0,-0.5
2,1,2,71,-0.8,0.342251,1,1.0,-1.0,-0.5
2,1,2,72,-0.5,0.503378,0,-1.0,1.0,-0.8
2,1,2,73,1.6,0.482217,0,1.0,-1.0,-0.5
2,1,2,74,-1.6,0.349531,0,-1.0,1.0,1.6
2,1,2,75,1.6,0.438166,0,1.0,-1.0,-1.6
2,1,2,76,-1.6,0.635538,1,1.0,1.0,1.6
2,1,2,77,1.6,0.569038,0,1.0,1.0,-1.6
2,1,2,78,-0.2,0.417129,1,1.0,1.0,1.6
2,1,2,79,0.2,0.471088,0,1.0,1.0,-0.2
2,1,2,80,0.8,0.555325,0,1.0,1.0,0.2
2,1,2,81,0.8,0.475989,0,1.0,1.0,0.8
2,1,2,82,-0.5,0.487819,1,1.0,1.0,0.8
2,1,2,83,0.2,0.467734,0,1.0,1.0,-0.5
2,1,2,84,1.6,0.471531,0,1.0,1.0,0.2
2,1,2,85,1.6,0.475368,0,1.0,1.0,1.6
2,1,2,86,-0.8,0.495389,1,1.0,1.0,1.6
2,1,2,87,-0.5,0.682957,1,1.0,1.0,-0.8
2,1,2,88,0.5,0.446436,0,1.0,1.0,-0.5
2,1,2,89,-1.6,0.49941,1,1.0,1.0,0.5
2,1,2,90,-1.6,0.702346,1,1.0,1.0,-1.6
2,1,2,91,-0.2,0.545039,0,-1.0,1.0,-1.6
2,1,2,92,0.5,0.594442,0,1.0,-1.0,-0.2
2,1,2,93,1.6,0.425903,0,1.0,1.0,0.5
2,1,2,94,-1.6,0.463979,1,1.0,1.0,1.6
2,1,2,95,0.2,0.516765,0,1.0,1.0,-1.6
2,1,2,96,0.5,0.622662,1,-1.0,1.0,0.2
2,1,2,97,0.8,0.468811,0,1.0,-1.0,0.5
2,1,2,98,0.5,0.624873,0,1.0,1.0,0.8
2,1,2,99,0.8,0.52689,1,-1.0,1.0,0.5
2,1,2,100,0.5,0.36896,0,1.0,-1.0,0.8
2,1,2,101,-0.8,0.38495,0,-1.0,1.0,0.5
2,1,2,102,-0.2,0.488446,0,-1.0,-1.0,-0.8
2,1,2,103,-0.5,0.467718,1,1.0,-1.0,-0.2
2,1,2,104,0.5,0.399996,0,1.0,1.0,-0.5
2,1,2,105,0.8,0.430584,1,-1.0,1.0,0.5
2,1,2,106,-0.5,0.708783,1,1.0,-1.0,0.8
2,1,2,107,0.8,0.439433,0,1.0,1.0,-0.5
2,1,2,108,-0.2,0.388669,1,1.0,1.0,0.8
2,1,2,109,-0.2,0.45221,0,-1.0,1.0,-0.2
2,1,2,110,-0.5,0.592669,1,1.0,-1.0,-0.2
2,1,2,111,0.8,0.464225,0,1.0,1.0,-0.5
2,1,2,112,0.5,0.444955,1,-1.0,1.0,0.8
2,1,2,113,-0.2,0.498196,0,-1.0,-1.0,0.5
2,1,2,114,0.2,0.365759,0,1.0,-1.0,-0.2
2,1,2,115,1.6,0.373845,0,1.0,1.0,0.2
2,1,2,116,-0.5,0.461842,1,1.0,1.0,1.6
2,1,2,117,-0.5,0.434728,0,-1.0,1.0,-0.5
2,1,2,118,0.2,0.464002,0,1.0,-1.0,-0.5
2,1,2,119,0.5,0.348657,0,1.0,1.0,0.2
2,1,2,120,0.5,0.389313,0,1.0,1.0,0.5
2,1,2,121,-0.2,0.540838,1,1.0,1.0,0.5
2,1,2,122,-0.8,0.678155,0,-1.0,1.0,-0.2
2,1,2,123,-0.8,0.650261,0,-1.0,-1.0,-0.8
2,1,2,124,-0.2,0.447172,0,-1.0,-1.0,-0.8
2,1,2,125,0.5,0.476426,0,1.0,-1.0,-0.2
2,1,2,126,-0.5,0.464549,0,-1.0,1.0,0.5
2,1,2,127,0.5,0.541229,0,1.0,-1.0,-0.5
2,1,2,128,0.2,0.478524,0,1.0,1.0,0.5
2,2,2,1,1.6,0.490593,0,1.0,0.0,-100.0
2,2,2,2,0.5,0.445885,0,1.0,1.0,1.6
2,2,2,3,-0.5,0.379174,0,-1.0,1.0,0.5
2,2,2,4,0.2,0.491345,0,1.0,-1.0,-0.5
2,2,2,5,-0.8,0.446523,1,1.0,1.0,0.2
2,2,2,6,0.2,0.579953,0,1.0,1.0,-0.8
2,2,2,7,0.5,0.515998,0,1.0,1.0,0.2
2,2,2,8,0.8,0.518072,0,1.0,1.0,0.5
2,2,2,10,-0.2,0.400751,1,1.0,0.0,-0.2
2,2,2,11,0.2,0.423631,0,1.0,1.0,-0.2
2,2,2,12,0.5,0.5338,0,1.0,1.0,0.2
2,2,2,13,-0.2,0.455092,0,-1.0,1.0,0.5
2,2,2,14,-0.2,0.403955,0,-1.0,-1.0,-0.2
2,2,2,15,-0.5,0.522488,1,1.0,-1.0,-0.2
2,2,2,16,-0.8,0.508424,0,-1.0,1.0,-0.5
2,2,2,17,-0.2,0.471289,1,1.0,-1.0,-0.8
2,2,2,18,-0.5,0.67556,0,-1.0,1.0,-0.2
2,2,2,19,-0.2,0.359435,0,-1.0,-1.0,-0.5
2,2,2,20,0.8,0.360244,0,1.0,-1.0,-0.2
2,2,2,21,0.2,0.448892,1,-1.0,1.0,0.8
2,2,2,22,0.8,0.462081,0,1.0,-1.0,0.2
2,2,2,23,-0.8,0.458329,0,-1.0,1.0,0.8
2,2,2,24,1.6,0.422882,0,1.0,-1.0,-0.8
2,2,2,25,-0.8,0.437202,1,1.0,1.0,1.6
2,2,2,26,-0.5,0.52253,1,1.0,1.0,-0.8
2,2,2,27,0.5,0.460555,0,1.0,1.0,-0.5
2,2,2,28,0.2,0.553391,0,1.0,1.0,0.5
2,2,2,29,-0.2,0.497816,1,1.0,1.0,0.2
2,2,2,30,-0.5,0.381329,0,-1.0,1.0,-0.2
2,2,2,31,-0.8,0.341399,1,1.0,-1.0,-0.5
2,2,2,32,-0.5,0.470713,0,-1.0,1.0,-0.8
2,2,2,33,-0.5,0.426855,0,-1.0,-1.0,-0.5
2,2,2,34,-0.2,0.488925,0,-1.0,-1.0,-0.5
2,2,2,35,-0.8,0.436416,0,-1.0,-1.0,-0.2
2,2,2,36,0.5,0.465936,0,1.0,-1.0,-0.8
2,2,2,37,1.6,0.509707,1,-1.0,1.0,0.5
2,2,2,38,-0.5,0.504401,1,1.0,-1.0,1.6
2,2,2,39,0.5,0.427199,0,1.0,1.0,-0.5
2,2,2,40,-1.6,0.505133,1,1.0,1.0,0.5
2,2,2,41,0.2,0.420113,0,1.0,1.0,-1.6
2,2,2,42,0.2,0.721964,0,1.0,1.0,0.2
2,2,2,43,-1.6,0.45201,1,1.0,1.0,0.2
2,2,2,44,-1.6,0.456848,0,-1.0,1.0,-1.6
2,2,2,45,-0.5,0.40536,0,-1.0,-1.0,-1.6
2,2,2,46,0.5,0.428198,0,1.0,-1.0,-0.5
2,2,2,47,-0.5,0.450391,0,-1.0,1.0,0.5
2,2,2,48,0.2,0.43088,0,1.0,-1.0,-0.5
2,2,2,49,0.2,0.556902,0,1.0,1.0,0.2
2,2,2,50,0.2,0.493675,0,1.0,1.0,0.2
2,2,2,51,-0.2,0.449131,0,-1.0,1.0,0.2
2,2,2,52,-0.2,0.429821,0,-1.0,-1.0,-0.2
2,2,2,53,-0.2,0.532019,1,1.0,-1.0,-0.2
2,2,2,54,1.6,0.478014,0,1.0,1.0,-0.2
2,2,2,55,-1.6,0.545862,1,1.0,1.0,1.6
2,2,2,56,-0.2,0.483475,0,-1.0,1.0,-1.6
2,2,2,57,0.5,0.57477,0,1.0,-1.0,-0.2
2,2,2,58,0.2,0.59901,1,-1.0,1.0,0.5
2,2,2,59,-0.5,0.629734,0,-1.0,-1.0,0.2
2,2,2,60,0.8,0.587636,0,1.0,-1.0,-0.5
2,2,2,61,-0.8,0.57094,1,1.0,1.0,0.8
2,2,2,62,-0.2,0.498951,0,-1.0,1.0,-0.8
2,2,2,63,0.8,0.573916,0,1.0,-1.0,-0.2
2,2,2,64,0.2,0.469941,0,1.0,1.0,0.8
2,2,2,65,0.2,0.481941,1,-1.0,1.0,0.2
2,2,2,66,-0.2,0.598148,0,-1.0,-1.0,0.2
2,2,2,67,-0.5,0.549432,0,-1.0,-1.0,-0.2
2,2,2,68,0.8,0.430157,0,1.0,-1.0,-0.5
2,2,2,69,0.5,0.524167,0,1.0,1.0,0.8
2,2,2,70,-0.2,0.606327,0,-1.0,1.0,0.5
2,2,2,71,0.5,0.485073,0,1.0,-1.0,-0.2
2,2,2,72,-0.2,0.60834,1,1.0,1.0,0.5
2,2,2,73,-0.2,0.606999,0,-1.0,1.0,-0.2
2,2,2,74,0.5,0.477863,0,1.0,-1.0,-0.2
2,2,2,75,-0.8,0.641696,1,1.0,1.0,0.5
2,2,2,76,0.8,0.42319,0,1.0,1.0,-0.8
2,2,2,77,-1.6,0.469186,1,1.0,1.0,0.8
2,2,2,78,-0.5,0.537292,0,-1.0,1.0,-1.6
2,2,2,79,-1.6,0.55481,1,1.0,-1.0,-0.5
2,2,2,80,-0.2,0.611498,0,-1.0,1.0,-1.6
2,2,2,81,0.5,0.514492,0,1.0,-1.0,-0.2
2,2,2,82,0.8,0.524866,1,-1.0,1.0,0.5
2,2,2,83,0.2,0.558961,0,1.0,-1.0,0.8
2,2,2,84,0.5,0.519615,1,-1.0,1.0,0.2
2,2,2,85,0.2,0.553783,0,1.0,-1.0,0.5
2,2,2,86,0.5,0.538661,0,1.0,1.0,0.2
2,2,2,87,-1.6,0.51587,1,1.0,1.0,0.5
2,2,2,89,-0.5,0.469339,1,1.0,0.0,-0.2
2,2,2,90,-0.5,0.489591,0,-1.0,1.0,-0.5
2,2,2,91,1.6,0.645073,0,1.0,-1.0,-0.5
2,2,2,92,-0.5,0.546098,1,1.0,1.0,1.6
2,2,2,93,0.2,0.547593,0,1.0,1.0,-0.5
2,2,2,94,-0.5,0.493319,0,-1.0,1.0,0.2
2,2,2,95,0.2,0.624197,0,1.0,-1.0,-0.5
2,2,2,96,1.6,0.382519,0,1.0,1.0,0.2
2,2,2,97,-0.8,0.477911,1,1.0,1.0,1.6
2,2,2,98,0.8,0.433887,0,1.0,1.0,-0.8
2,2,2,99,-0.8,0.431298,1,1.0,1.0,0.8
2,2,2,100,-0.5,0.509258,0,-1.0,1.0,-0.8
2,2,2,101,0.2,0.464079,1,-1.0,-1.0,-0.5
2,2,2,102,-0.8,0.412723,0,-1.0,-1.0,0.2
2,2,2,103,-0.8,0.571471,0,-1.0,-1.0,-0.8
2,2,2,104,0.2,0.427416,0,1.0,-1.0,-0.8
2,2,2,105,-1.6,0.457622,1,1.0,1.0,0.2
2,2,2,106,1.6,0.478422,0,1.0,1.0,-1.6
2,2,2,107,0.2,0.514268,1,-1.0,1.0,1.6
2,2,2,108,-0.2,0.453244,0,-1.0,-1.0,0.2
2,2,2,109,0.5,0.642092,0,1.0,-1.0,-0.2
2,2,2,110,0.8,0.535206,1,-1.0,1.0,0.5
2,2,2,111,-0.2,0.472745,0,-1.0,-1.0,0.8
2,2,2,112,0.2,0.508713,0,1.0,-1.0,-0.2
2,2,2,113,0.2,0.455656,0,1.0,1.0,0.2
2,2,2,114,0.5,0.492231,0,1.0,1.0,0.2
2,2,2,115,0.2,0.527498,0,1.0,1.0,0.5
2,2,2,116,-0.2,0.409652,0,-1.0,1.0,0.2
2,2,2,117,0.5,0.496333,0,1.0,-1.0,-0.2
2,2,2,118,-0.5,0.475532,0,-1.0,1.0,0.5
2,2,2,119,0.5,0.455779,0,1.0,-1.0,-0.5
2,2,2,120,1.6,0.48441,0,1.0,1.0,0.5
2,2,2,121,-0.5,0.37585,0,-1.0,1.0,1.6
2,2,2,122,0.5,0.4,0,1.0,-1.0,-0.5
2,2,2,123,0.2,0.582501,1,-1.0,1.0,0.5
2,2,2,124,-0.2,0.430202,0,-1.0,-1.0,0.2
2,2,2,126,0.8,0.484085,0,1.0,0.0,-0.2
2,2,2,127,0.8,0.543747,0,1.0,1.0,0.8
2,2,2,128,0.5,0.456967,0,1.0,1.0,0.8
2,3,2,1,-1.6,0.41235,1,1.0,0.0,-100.0
2,3,2,2,1.6,0.467133,0,1.0,1.0,-1.6
2,3,2,3,1.6,0.438713,1,-1.0,1.0,1.6
2,3,2,4,0.5,0.4603,0,1.0,-1.0,1.6
2,3,2,5,1.6,0.529156,0,1.0,1.0,0.5
2,3,2,6,0.2,0.435068,1,-1.0,1.0,1.6
2,3,2,7,-0.8,0.368528,1,1.0,-1.0,0.2
2,3,2,8,0.2,0.432343,1,-1.0,1.0,-0.8
2,3,2,9,0.5,0.397943,1,-1.0,-1.0,0.2
2,3,2,10,0.5,0.437134,0,1.0,-1.0,0.5
2,3,2,11,0.8,0.434468,1,-1.0,1.0,0.5
2,3,2,12,0.5,0.703949,0,1.0,-1.0,0.8
2,3,2,13,0.2,0.506727,0,1.0,1.0,0.5
2,3,2,14,-0.5,0.397318,1,1.0,1.0,0.2
2,3,2,15,-0.2,0.356777,1,1.0,1.0,-0.5
2,3,2,16,0.5,0.477485,0,1.0,1.0,-0.2
2,3,2,17,-0.2,0.425562,1,1.0,1.0,0.5
2,3,2,18,-0.8,0.335812,1,1.0,1.0,-0.2
2,3,2,19,0.8,0.513168,1,-1.0,1.0,-0.8
2,3,2,20,-0.2,0.42755,1,1.0,-1.0,0.8
2,3,2,21,-0.5,0.425811,1,1.0,1.0,-0.2
2,3,2,22,-1.6,0.39196,1,1.0,1.0,-0.5
2,3,2,23,0.2,0.54325,0,1.0,1.0,-1.6
2,3,2,24,-0.2,0.584597,0,-1.0,1.0,0.2
2,3,2,25,-0.2,0.544049,0,-1.0,-1.0,-0.2
2,3,2,26,-0.2,0.601466,1,1.0,-1.0,-0.2
2,3,2,27,0.2,0.520169,0,1.0,1.0,-0.2
2,3,2,28,-0.5,0.514315,1,1.0,1.0,0.2
2,3,2,29,0.2,0.460988,1,-1.0,1.0,-0.5
2,3,2,30,-1.6,0.497621,1,1.0,-1.0,0.2
2,3,2,31,-0.8,0.420939,1,1.0,1.0,-1.6
2,3,2,32,-0.5,0.443056,1,1.0,1.0,-0.8
2,3,2,33,0.5,0.656584,0,1.0,1.0,-0.5
2,3,2,34,0.2,0.397332,1,-1.0,1.0,0.5
2,3,2,35,0.5,0.572633,0,1.0,-1.0,0.2
2,3,2,36,0.5,0.676823,0,1.0,1.0,0.5
2,3,2,37,0.8,0.448661,0,1.0,1.0,0.5
2,3,2,38,-0.8,0.477402,1,1.0,1.0,0.8
2,3,2,39,0.2,0.609765,0,1.0,1.0,-0.8
2,3,2,40,0.5,0.736332,0,1.0,1.0,0.2
2,3,2,41,0.5,0.441657,1,-1.0,1.0,0.5
2,3,2,42,0.2,0.631108,0,1.0,-1.0,0.5
2,3,2,43,-1.6,0.397192,1,1.0,1.0,0.2
2,3,2,44,-0.5,0.532525,1,1.0,1.0,-1.6
2,3,2,45,-0.2,0.502013,0,-1.0,1.0,-0.5
2,3,2,46,0.2,0.408564,0,1.0,-1.0,-0.2
2,3,2,47,-0.5,0.431417,1,1.0,1.0,0.2
2,3,2,48,-0.8,0.397426,1,1.0,1.0,-0.5
2,3,2,49,1.6,0.484618,0,1.0,1.0,-0.8
2,3,2,50,-0.5,0.360154,1,1.0,1.0,1.6
2,3,2,51,1.6,0.472982,0,1.0,1.0,-0.5
2,3,2,52,0.2,0.461162,0,1.0,1.0,1.6
2,3,2,53,-0.5,0.48173,1,1.0,1.0,0.2
2,3,2,54,0.2,0.405065,1,-1.0,1.0,-0.5
2,3,2,55,0.5,0.403711,1,-1.0,-1.0,0.2
2,3,2,56,-0.5,0.426449,1,1.0,-1.0,0.5
2,3,2,57,-0.8,0.568672,0,-1.0,1.0,-0.5
2,3,2,58,0.2,0.38462,1,-1.0,-1.0,-0.8
2,3,2,59,-0.5,0.608017,0,-1.0,-1.0,0.2
2,3,2,60,-0.2,0.470777,1,1.0,-1.0,-0.5
2,3,2,61,1.6,0.530749,0,1.0,1.0,-0.2
2,3,2,62,-0.2,0.508883,1,1.0,1.0,1.6
2,3,2,63,0.8,0.447665,0,1.0,1.0,-0.2
2,3,2,64,-0.2,0.428901,1,1.0,1.0,0.8
2,3,2,65,-1.6,0.483113,1,1.0,1.0,-0.2
2,3,2,66,-0.2,0.422223,1,1.0,1.0,-1.6
2,3,2,67,-0.8,0.500363,1,1.0,1.0,-0.2
2,3,2,68,1.6,0.559222,0,1.0,1.0,-0.8
2,3,2,69,-0.2,0.415823,1,1.0,1.0,1.6
2,3,2,70,0.2,0.518122,0,1.0,1.0,-0.2
2,3,2,71,-0.5,0.359953,1,1.0,1.0,0.2
2,3,2,72,0.8,0.584758,0,1.0,1.0,-0.5
2,3,2,73,-0.8,0.407975,1,1.0,1.0,0.8
2,3,2,74,0.5,0.455082,0,1.0,1.0,-0.8
2,3,2,75,-0.2,0.355659,1,1.0,1.0,0.5
2,3,2,76,0.8,0.436333,0,1.0,1.0,-0.2
2,3,2,77,0.2,0.369643,1,-1.0,1.0,0.8
2,3,2,78,0.8,0.561818,0,1.0,-1.0,0.2
2,3,2,79,-0.2,0.386608,1,1.0,1.0,0.8
2,3,2,80,-0.2,0.473781,1,1.0,1.0,-0.2
2,3,2,81,0.2,0.637889,0,1.0,1.0,-0.2
2,3,2,82,0.8,0.555149,0,1.0,1.0,0.2
2,3,2,83,-0.8,0.539989,1,1.0,1.0,0.8
2,3,2,84,-1.6,0.581446,1,1.0,1.0,-0.8
2,3,2,86,0.2,0.402297,1,-1.0,0.0,-0.2
2,3,2,87,0.8,0.448978,0,1.0,-1.0,0.2
2,3,2,88,-0.5,0.349967,1,1.0,1.0,0.8
2,3,2,89,0.2,0.502599,0,1.0,1.0,-0.5
2,3,2,90,0.5,0.552948,0,1.0,1.0,0.2
2,3,2,91,-0.2,0.425704,1,1.0,1.0,0.5
2,3,2,92,-0.8,0.439838,1,1.0,1.0,-0.2
2,3,2,93,-0.2,0.461212,1,1.0,1.0,-0.8
2,3,2,94,-1.6,0.513895,1,1.0,1.0,-0.2
2,3,2,95,0.5,0.388696,1,-1.0,1.0,-1.6
2,3,2,96,-0.8,0.395974,1,1.0,-1.0,0.5
2,3,2,97,-0.5,0.579553,0,-1.0,1.0,-0.8
2,3,2,98,0.2,0.435631,0,1.0,-1.0,-0.5
2,3,2,99,0.2,0.368919,1,-1.0,1.0,0.2
2,3,2,100,-0.2,0.744878,1,1.0,-1.0,0.2
2,3,2,101,0.2,0.434405,0,1.0,1.0,-0.2
2,3,2,102,0.5,0.63166,0,1.0,1.0,0.2
2,3,2,103,0.5,0.501874,0,1.0,1.0,0.5
2,3,2,104,-0.2,0.44845,1,1.0,1.0,0.5
2,3,2,105,0.2,0.590075,0,1.0,1.0,-0.2
2,3,2,106,-0.5,0.557139,1,1.0,1.0,0.2
2,3,2,107,0.5,0.54994,0,1.0,1.0,-0.5
2,3,2,108,-0.2,0.446835,1,1.0,1.0,0.5
2,3,2,109,-0.8,0.548154,1,1.0,1.0,-0.2
2,3,2,110,-0.5,0.573502,1,1.0,1.0,-0.8
2,3,2,111,-0.5,0.60584,0,-1.0,1.0,-0.5
2,3,2,112,-1.6,0.580186,1,1.0,-1.0,-0.5
2,3,2,113,-0.5,0.540269,1,1.0,1.0,-1.6
2,3,2,114,0.8,0.549764,0,1.0,1.0,-0.5
2,3,2,115,0.2,0.50258,0,1.0,1.0,0.8
2,3,2,116,0.8,0.513342,1,-1.0,1.0,0.2
2,3,2,117,-0.5,0.532051,0,-1.0,-1.0,0.8
2,3,2,118,0.8,0.581364,0,1.0,-1.0,-0.5
2,3,2,119,-0.5,0.469285,1,1.0,1.0,0.8
2,3,2,120,1.6,0.433624,0,1.0,1.0,-0.5
2,3,2,121,-0.2,0.502852,1,1.0,1.0,1.6
2,3,2,122,-0.5,0.457621,0,-1.0,1.0,-0.2
2,3,2,123,0.5,0.494313,0,1.0,-1.0,-0.5
2,3,2,124,-0.2,0.54564,1,1.0,1.0,0.5
2,3,2,125,0.2,0.427154,0,1.0,1.0,-0.2
2,3,2,126,0.5,0.417259,0,1.0,1.0,0.2
2,3,2,127,0.5,0.567297,0,1.0,1.0,0.5
2,3,2,128,-0.2,0.415464,0,-1.0,1.0,0.5
2,1,3,1,1.6,0.430275,0,1.0,0.0,-100.0
2,1,3,2,0.5,0.460722,0,1.0,1.0,1.6
2,1,3,3,-0.5,0.424993,1,1.0,1.0,0.5
2,1,3,4,0.2,0.583211,0,1.0,1.0,-0.5
2,1,3,5,-0.8,0.43045,0,-1.0,1.0,0.2
2,1,3,6,0.2,0.444689,1,-1.0,-1.0,-0.8
2,1,3,7,0.5,0.641825,1,-1.0,-1.0,0.2
2,1,3,8,0.8,0.440072,0,1.0,-1.0,0.5
2,1,3,9,-0.2,0.452752,1,1.0,1.0,0.8
2,1,3,10,-0.2,0.561372,1,1.0,1.0,-0.2
2,1,3,11,0.2,0.35407,1,-1.0,1.0,-0.2
2,1,3,12,0.5,0.330772,1,-1.0,-1.0,0.2
2,1,3,13,-0.2,0.32499,1,1.0,-1.0,0.5
2,1,3,14,-0.2,0.519059,1,1.0,1.0,-0.2
2,1,3,15,-0.5,0.384987,1,1.0,1.0,-0.2
2,1,3,16,-0.8,0.304474,1,1.0,1.0,-0.5
2,1,3,17,-0.2,0.31502,1,1.0,1.0,-0.8
2,1,3,18,-0.5,0.318397,1,1.0,1.0,-0.2
2,1,3,19,-0.2,0.359832,1,1.0,1.0,-0.5
2,1,3,20,0.8,0.352616,1,-1.0,1.0,-0.2
2,1,3,21,0.2,0.417379,1,-1.0,-1.0,0.8
2,1,3,22,0.8,0.455575,0,1.0,-1.0,0.2
2,1,3,24,1.6,0.445705,0,1.0,0.0,-0.8
2,1,3,25,-0.8,0.442939,1,1.0,1.0,1.6
2,1,3,26,-0.5,0.408397,0,-1.0,1.0,-0.8
2,1,3,27,0.5,0.438908,1,-1.0,-1.0,-0.5
2,1,3,28,0.2,0.396346,1,-1.0,-1.0,0.5
2,1,3,29,-0.2,0.371885,1,1.0,-1.0,0.2
2,1,3,30,-0.5,0.372524,1,1.0,1.0,-0.2
2,1,3,31,-0.8,0.324048,1,1.0,1.0,-0.5
2,1,3,32,-0.5,0.534015,1,1.0,1.0,-0.8
2,1,3,33,-0.5,0.215411,1,1.0,1.0,-0.5
2,1,3,34,-0.2,0.326143,1,1.0,1.0,-0.5
2,1,3,35,-0.8,0.272294,1,1.0,1.0,-0.2
2,1,3,36,0.5,0.324183,1,-1.0,1.0,-0.8
2,1,3,37,1.6,0.29413,1,-1.0,-1.0,0.5
2,1,3,38,-0.5,0.513708,1,1.0,-1.0,1.6
2,1,3,39,0.5,0.532258,0,1.0,1.0,-0.5
2,1,3,40,-1.6,0.373589,1,1.0,1.0,0.5
2,1,3,41,0.2,0.437707,0,1.0,1.0,-1.6
2,1,3,42,0.2,0.363065,1,-1.0,1.0,0.2
2,1,3,43,-1.6,0.379972,0,-1.0,-1.0,0.2
2,1,3,44,-1.6,0.315783,1,1.0,-1.0,-1.6
2,1,3,45,-0.5,0.613825,1,1.0,1.0,-1.6
2,1,3,46,0.5,0.62893,0,1.0,1.0,-0.5
2,1,3,47,-0.5,0.362764,1,1.0,1.0,0.5
2,1,3,48,0.2,0.323343,1,-1.0,1.0,-0.5
2,1,3,49,0.2,0.365432,1,-1.0,-1.0,0.2
2,1,3,50,0.2,0.357905,1,-1.0,-1.0,0.2
2,1,3,51,-0.2,0.582373,0,-1.0,-1.0,0.2
2,1,3,52,-0.2,0.581797,0,-1.0,-1.0,-0.2
2,1,3,53,-0.2,0.397103,1,1.0,-1.0,-0.2
2,1,3,54,1.6,0.51699,0,1.0,1.0,-0.2
2,1,3,55,-1.6,0.44655,1,1.0,1.0,1.6
2,1,3,56,-0.2,0.419922,0,-1.0,1.0,-1.6
2,1,3,57,0.5,0.321835,1,-1.0,-1.0,-0.2
2,1,3,58,0.2,0.452081,0,1.0,-1.0,0.5
2,1,3,59,-0.5,0.424855,0,-1.0,1.0,0.2
2,1,3,60,0.8,0.478829,0,1.0,-1.0,-0.5
2,1,3,61,-0.8,0.46679,1,1.0,1.0,0.8
2,1,3,62,-0.2,0.566936,0,-1.0,1.0,-0.8
2,1,3,63,0.8,0.5271,0,1.0,-1.0,-0.2
2,1,3,64,0.2,0.521123,0,1.0,1.0,0.8
2,1,3,65,0.2,0.51511,1,-1.0,1.0,0.2
2,1,3,66,-0.2,0.494337,0,-1.0,-1.0,0.2
2,1,3,67,-0.5,0.577203,1,1.0,-1.0,-0.2
2,1,3,68,0.8,0.457363,0,1.0,1.0,-0.5
2,1,3,69,0.5,0.462032,1,-1.0,1.0,0.8
2,1,3,70,-0.2,0.530708,0,-1.0,-1.0,0.5
2,1,3,71,0.5,0.636731,0,1.0,-1.0,-0.2
2,1,3,72,-0.2,0.457978,1,1.0,1.0,0.5
2,1,3,73,-0.2,0.494933,0,-1.0,1.0,-0.2
2,1,3,74,0.5,0.538244,0,1.0,-1.0,-0.2
2,1,3,75,-0.8,0.475714,0,-1.0,1.0,0.5
2,1,3,76,0.8,0.527697,0,1.0,-1.0,-0.8
2,1,3,77,-1.6,0.433676,1,1.0,1.0,0.8
2,1,3,78,-0.5,0.503256,0,-1.0,1.0,-1.6
2,1,3,79,-1.6,0.473875,1,1.0,-1.0,-0.5
2,1,3,80,-0.2,0.518009,0,-1.0,1.0,-1.6
2,1,3,81,0.5,0.399925,1,-1.0,-1.0,-0.2
2,1,3,82,0.8,0.526622,0,1.0,-1.0,0.5
2,1,3,83,0.2,0.488814,0,1.0,1.0,0.8
2,1,3,84,0.5,0.484227,0,1.0,1.0,0.2
2,1,3,85,0.2,0.423451,1,-1.0,1.0,0.5
2,1,3,86,0.5,0.509814,0,1.0,-1.0,0.2
2,1,3,87,-1.6,0.432279,1,1.0,1.0,0.5
2,1,3,88,-0.2,0.406294,0,-1.0,1.0,-1.6
2,1,3,89,-0.5,0.405053,1,1.0,-1.0,-0.2
2,1,3,90,-0.5,0.587821,0,-1.0,1.0,-0.5
2,1,3,91,1.6,0.459329,0,1.0,-1.0,-0.5
2,1,3,92,-0.5,0.487816,0,-1.0,1.0,1.6
2,1,3,93,0.2,0.467157,1,-1.0,-1.0,-0.5
2,1,3,94,-0.5,0.543203,1,1.0,-1.0,0.2
2,1,3,95,0.2,0.320596,1,-1.0,1.0,-0.5
2,1,3,96,1.6,0.458877,0,1.0,-1.0,0.2
2,1,3,97,-0.8,0.463743,1,1.0,1.0,1.6
2,1,3,98,0.8,0.46828,0,1.0,1.0,-0.8
2,1,3,99,-0.8,0.448243,1,1.0,1.0,0.8
2,1,3,100,-0.5,0.637799,0,-1.0,1.0,-0.8
2,1,3,101,0.2,0.451159,0,1.0,-1.0,-0.5
2,1,3,102,-0.8,0.431747,1,1.0,1.0,0.2
2,1,3,103,-0.8,0.629977,1,1.0,1.0,-0.8
2,1,3,104,0.2,0.555908,0,1.0,1.0,-0.8
2,1,3,105,-1.6,0.300575,1,1.0,1.0,0.2
2,1,3,106,1.6,0.407417,0,1.0,1.0,-1.6
2,1,3,107,0.2,0.542062,0,1.0,1.0,1.6
2,1,3,108,-0.2,0.471343,1,1.0,1.0,0.2
2,1,3,109,0.5,0.451547,0,1.0,1.0,-0.2
2,1,3,110,0.8,0.488774,0,1.0,1.0,0.5
2,1,3,111,-0.2,0.547654,1,1.0,1.0,0.8
2,1,3,112,0.2,0.541045,0,1.0,1.0,-0.2
2,1,3,113,0.2,0.582504,0,1.0,1.0,0.2
2,1,3,114,0.5,0.501894,0,1.0,1.0,0.2
2,1,3,115,0.2,0.496677,0,1.0,1.0,0.5
2,1,3,116,-0.2,0.419893,0,-1.0,1.0,0.2
2,1,3,117,0.5,0.410056,0,1.0,-1.0,-0.2
2,1,3,118,-0.5,0.392738,0,-1.0,1.0,0.5
2,1,3,119,0.5,0.432104,0,1.0,-1.0,-0.5
2,1,3,120,1.6,0.53408,0,1.0,1.0,0.5
2,1,3,121,-0.5,0.414732,1,1.0,1.0,1.6
2,1,3,122,0.5,0.501783,0,1.0,1.0,-0.5
2,1,3,123,0.2,0.464706,1,-1.0,1.0,0.5
2,1,3,125,-0.2,0.445919,0,-1.0,0.0,-0.2
2,1,3,126,0.8,0.483032,0,1.0,-1.0,-0.2
2,1,3,127,0.8,0.470518,0,1.0,1.0,0.8
2,1,3,128,0.5,0.410473,0,1.0,1.0,0.8
2,2,3,1,-1.6,0.387186,1,1.0,0.0,-100.0
2,2,3,2,1.6,0.362276,1,-1.0,1.0,-1.6
2,2,3,3,1.6,0.523363,0,1.0,-1.0,1.6
2,2,3,4,0.5,0.397075,0,1.0,1.0,1.6
2,2,3,5,1.6,0.476699,0,1.0,1.0,0.5
2,2,3,6,0.2,0.488519,1,-1.0,1.0,1.6
2,2,3,7,-0.8,0.435925,1,1.0,-1.0,0.2
2,2,3,8,0.2,0.47342,0,1.0,1.0,-0.8
2,2,3,9,0.5,0.357301,1,-1.0,1.0,0.2
2,2,3,10,0.5,0.510146,0,1.0,-1.0,0.5
2,2,3,11,0.8,0.417005,0,1.0,1.0,0.5
2,2,3,12,0.5,0.351063,0,1.0,1.0,0.8
2,2,3,13,0.2,0.375703,0,1.0,1.0,0.5
2,2,3,14,-0.5,0.607721,0,-1.0,1.0,0.2
2,2,3,15,-0.2,0.318365,1,1.0,-1.0,-0.5
2,2,3,16,0.5,0.384515,0,1.0,1.0,-0.2
2,2,3,17,-0.2,0.503823,1,1.0,1.0,0.5
2,2,3,18,-0.8,0.43467,0,-1.0,1.0,-0.2
2,2,3,19,0.8,0.423944,0,1.0,-1.0,-0.8
2,2,3,20,-0.2,0.406051,0,-1.0,1.0,0.8
2,2,3,21,-0.5,0.420704,0,-1.0,-1.0,-0.2
2,2,3,22,-1.6,0.474838,1,1.0,-1.0,-0.5
2,2,3,23,0.2,0.430793,0,1.0,1.0,-1.6
2,2,3,24,-0.2,0.460977,1,1.0,1.0,0.2
2,2,3,25,-0.2,0.417526,0,-1.0,1.0,-0.2
2,2,3,26,-0.2,0.447806,0,-1.0,-1.0,-0.2
2,2,3,27,0.2,0.533051,1,-1.0,-1.0,-0.2
2,2,3,28,-0.5,0.438528,1,1.0,-1.0,0.2
2,2,3,29,0.2,0.45995,0,1.0,1.0,-0.5
2,2,3,30,-1.6,0.512539,1,1.0,1.0,0.2
2,2,3,31,-0.8,0.523295,0,-1.0,1.0,-1.6
2,2,3,32,-0.5,0.445432,0,-1.0,-1.0,-0.8
2,2,3,33,0.5,0.490932,0,1.0,-1.0,-0.5
2,2,3,34,0.2,0.422074,0,1.0,1.0,0.5
2,2,3,35,0.5,0.444234,1,-1.0,1.0,0.2
2,2,3,36,0.5,0.425403,1,-1.0,-1.0,0.5
2,2,3,37,0.8,0.471737,1,-1.0,-1.0,0.5
2,2,3,38,-0.8,0.483733,1,1.0,-1.0,0.8
2,2,3,39,0.2,0.535395,1,-1.0,1.0,-0.8
2,2,3,40,0.5,0.640344,0,1.0,-1.0,0.2
2,2,3,41,0.5,0.42992,0,1.0,1.0,0.5
2,2,3,42,0.2,0.443995,0,1.0,1.0,0.5
2,2,3,43,-1.6,0.449377,1,1.0,1.0,0.2
2,2,3,44,-0.5,0.470164,0,-1.0,1.0,-1.6
2,2,3,45,-0.2,0.554082,0,-1.0,-1.0,-0.5
2,2,3,46,0.2,0.418827,0,1.0,-1.0,-0.2
2,2,3,48,-0.8,0.522347,1,1.0,0.0,-0.5
2,2,3,49,1.6,0.49227,0,1.0,1.0,-0.8
2,2,3,50,-0.5,0.399785,1,1.0,1.0,1.6
2,2,3,51,1.6,0.486553,0,1.0,1.0,-0.5
2,2,3,52,0.2,0.425773,1,-1.0,1.0,1.6
2,2,3,53,-0.5,0.471914,1,1.0,-1.0,0.2
2,2,3,54,0.2,0.339946,1,-1.0,1.0,-0.5
2,2,3,55,0.5,0.46929,1,-1.0,-1.0,0.2
2,2,3,56,-0.5,0.425366,1,1.0,-1.0,0.5
2,2,3,57,-0.8,0.335528,1,1.0,1.0,-0.5
2,2,3,58,0.2,0.320837,1,-1.0,1.0,-0.8
2,2,3,59,-0.5,0.29079,1,1.0,-1.0,0.2
2,2,3,60,-0.2,0.318144,1,1.0,1.0,-0.5
2,2,3,61,1.6,0.480339,0,1.0,1.0,-0.2
2,2,3,62,-0.2,0.436314,0,-1.0,1.0,1.6
2,2,3,63,0.8,0.377771,0,1.0,-1.0,-0.2
2,2,3,64,-0.2,0.52183,0,-1.0,1.0,0.8
2,2,3,65,-1.6,0.483847,1,1.0,-1.0,-0.2
2,2,3,66,-0.2,0.48728,1,1.0,1.0,-1.6
2,2,3,67,-0.8,0.362563,1,1.0,1.0,-0.2
2,2,3,68,1.6,0.339454,1,-1.0,1.0,-0.8
2,2,3,69,-0.2,0.524917,0,-1.0,-1.0,1.6
2,2,3,70,0.2,0.358723,1,-1.0,-1.0,-0.2
2,2,3,71,-0.5,0.455469,1,1.0,-1.0,0.2
2,2,3,72,0.8,0.42823,0,1.0,1.0,-0.5
2,2,3,73,-0.8,0.442112,1,1.0,1.0,0.8
2,2,3,74,0.5,0.48779,0,1.0,1.0,-0.8
2,2,3,75,-0.2,0.339056,1,1.0,1.0,0.5
2,2,3,76,0.8,0.356536,0,1.0,1.0,-0.2
2,2,3,77,0.2,0.509264,1,-1.0,1.0,0.8
2,2,3,78,0.8,0.55197,0,1.0,-1.0,0.2
2,2,3,79,-0.2,0.536689,1,1.0,1.0,0.8
2,2,3,80,-0.2,0.490056,0,-1.0,1.0,-0.2
2,2,3,81,0.2,0.413282,1,-1.0,-1.0,-0.2
2,2,3,82,0.8,0.484172,0,1.0,-1.0,0.2
2,2,3,83,-0.8,0.391431,1,1.0,1.0,0.8
2,2,3,84,-1.6,0.286803,1,1.0,1.0,-0.8
2,2,3,85,-0.2,0.354202,1,1.0,1.0,-1.6
2,2,3,86,0.2,0.291093,1,-1.0,1.0,-0.2
2,2,3,87,0.8,0.334362,1,-1.0,-1.0,0.2
2,2,3,88,-0.5,0.583812,1,1.0,-1.0,0.8
2,2,3,89,0.2,0.367039,1,-1.0,1.0,-0.5
2,2,3,90,0.5,0.503147,1,-1.0,-1.0,0.2
2,2,3,92,-0.8,0.392745,1,1.0,0.0,-0.2
2,2,3,93,-0.2,0.335922,1,1.0,1.0,-0.8
2,2,3,94,-1.6,0.353342,1,1.0,1.0,-0.2
2,2,3,95,0.5,0.386246,0,1.0,1.0,-1.6
2,2,3,96,-0.8,0.48135,1,1.0,1.0,0.5
2,2,3,97,-0.5,0.477717,0,-1.0,1.0,-0.8
2,2,3,98,0.2,0.401625,1,-1.0,-1.0,-0.5
2,2,3,99,0.2,0.376338,1,-1.0,-1.0,0.2
2,2,3,100,-0.2,0.496479,0,-1.0,-1.0,0.2
2,2,3,101,0.2,0.435908,0,1.0,-1.0,-0.2
2,2,3,102,0.5,0.369179,0,1.0,1.0,0.2
2,2,3,103,0.5,0.585158,1,-1.0,1.0,0.5
2,2,3,104,-0.2,0.472591,1,1.0,-1.0,0.5
2,2,3,105,0.2,0.348819,1,-1.0,1.0,-0.2
2,2,3,106,-0.5,0.638077,0,-1.0,-1.0,0.2
2,2,3,107,0.5,0.419545,0,1.0,-1.0,-0.5
2,2,3,108,-0.2,0.577567,0,-1.0,1.0,0.5
2,2,3,109,-0.8,0.513585,1,1.0,-1.0,-0.2
2,2,3,110,-0.5,0.460343,1,1.0,1.0,-0.8
2,2,3,111,-0.5,0.512926,1,1.0,1.0,-0.5
2,2,3,112,-1.6,0.331687,1,1.0,1.0,-0.5
2,2,3,113,-0.5,0.373089,1,1.0,1.0,-1.6
2,2,3,114,0.8,0.285129,1,-1.0,1.0,-0.5
2,2,3,115,0.2,0.408659,1,-1.0,-1.0,0.8
2,2,3,116,0.8,0.375527,1,-1.0,-1.0,0.2
2,2,3,117,-0.5,0.415513,1,1.0,-1.0,0.8
2,2,3,118,0.8,0.405918,1,-1.0,1.0,-0.5
2,2,3,119,-0.5,0.404812,1,1.0,-1.0,0.8
2,2,3,120,1.6,0.379427,0,1.0,1.0,-0.5
2,2,3,121,-0.2,0.467598,1,1.0,1.0,1.6
2,2,3,122,-0.5,0.399567,0,-1.0,1.0,-0.2
2,2,3,123,0.5,0.350242,1,-1.0,-1.0,-0.5
2,2,3,124,-0.2,0.535198,1,1.0,-1.0,0.5
2,2,3,125,0.2,0.496657,1,-1.0,1.0,-0.2
2,2,3,126,0.5,0.435946,1,-1.0,-1.0,0.2
2,2,3,127,0.5,0.561178,0,1.0,-1.0,0.5
2,2,3,128,-0.2,0.482048,0,-1.0,1.0,0.5
2,3,3,1,1.6,0.460008,0,1.0,0.0,-100.0
2,3,3,2,0.8,0.424739,0,1.0,1.0,1.6
2,3,3,3,0.8,0.614921,0,1.0,1.0,0.8
2,3,3,4,-0.2,0.453415,1,1.0,1.0,0.8
2,3,3,5,0.5,0.466254,0,1.0,1.0,-0.2
2,3,3,6,0.8,0.366425,1,-1.0,1.0,0.5
2,3,3,7,-0.2,0.470313,0,-1.0,-1.0,0.8
2,3,3,8,-0.8,0.418245,1,1.0,-1.0,-0.2
2,3,3,9,-0.2,0.416365,0,-1.0,1.0,-0.8
2,3,3,10,-0.5,0.327401,1,1.0,-1.0,-0.2
2,3,3,11,0.5,0.36038,1,-1.0,1.0,-0.5
2,3,3,12,-0.5,0.337194,1,1.0,-1.0,0.5
2,3,3,13,-0.5,0.29872,1,1.0,1.0,-0.5
2,3,3,14,-0.2,0.33383,1,1.0,1.0,-0.5
2,3,3,15,-0.8,0.615307,1,1.0,1.0,-0.2
2,3,3,16,-0.5,0.429495,1,1.0,1.0,-0.8
2,3,3,17,0.2,0.379404,1,-1.0,1.0,-0.5
2,3,3,18,-0.8,0.547498,0,-1.0,-1.0,0.2
2,3,3,19,0.2,0.38078,1,-1.0,-1.0,-0.8
2,3,3,20,0.8,0.220842,1,-1.0,-1.0,0.2
2,3,3,21,-0.2,0.394918,1,1.0,-1.0,0.8
2,3,3,22,-0.5,0.410249,1,1.0,1.0,-0.2
2,3,3,24,1.6,0.410177,0,1.0,0.0,0.5
2,3,3,25,0.2,0.536535,0,1.0,1.0,1.6
2,3,3,26,-0.2,0.353975,1,1.0,1.0,0.2
2,3,3,27,-0.2,0.586679,0,-1.0,1.0,-0.2
2,3,3,28,-0.5,0.482087,1,1.0,-1.0,-0.2
2,3,3,29,-0.2,0.422028,1,1.0,1.0,-0.5
2,3,3,30,-0.2,0.388178,1,1.0,1.0,-0.2
2,3,3,31,0.5,0.331439,1,-1.0,1.0,-0.2
2,3,3,32,0.5,0.413612,0,1.0,-1.0,0.5
2,3,3,33,0.2,0.476315,1,-1.0,1.0,0.5
2,3,3,34,-0.8,0.536348,0,-1.0,-1.0,0.2
2,3,3,35,-0.8,0.377786,1,1.0,-1.0,-0.8
2,3,3,36,0.2,0.338487,1,-1.0,1.0,-0.8
2,3,3,37,-0.2,0.299515,1,1.0,-1.0,0.2
2,3,3,38,0.2,0.310708,1,-1.0,1.0,-0.2
2,3,3,39,-1.6,0.648662,1,1.0,-1.0,0.2
2,3,3,40,0.2,0.397487,1,-1.0,1.0,-1.6
2,3,3,41,0.2,0.236664,1,-1.0,-1.0,0.2
2,3,3,42,-0.2,0.466084,1,1.0,-1.0,0.2
2,3,3,43,-0.5,0.70297,1,1.0,1.0,-0.2
2,3,3,44,0.5,0.329355,1,-1.0,1.0,-0.5
2,3,3,45,0.5,0.354881,1,-1.0,-1.0,0.5
2,3,3,46,-0.5,0.29157,1,1.0,-1.0,0.5
2,3,3,47,-0.2,0.295848,1,1.0,1.0,-0.5
2,3,3,48,-0.5,0.322485,1,1.0,1.0,-0.2
2,3,3,49,-0.5,0.388521,1,1.0,1.0,-0.5
2,3,3,50,0.5,0.283944,1,-1.0,1.0,-0.5
2,3,3,51,-1.6,0.383222,1,1.0,-1.0,0.5
2,3,3,52,-0.5,0.318579,1,1.0,1.0,-1.6
2,3,3,53,1.6,0.45663,0,1.0,1.0,-0.5
2,3,3,54,0.2,0.437508,0,1.0,1.0,1.6
2,3,3,55,0.2,0.410768,0,1.0,1.0,0.2
2,3,3,56,0.8,0.369538,0,1.0,1.0,0.2
2,3,3,57,-0.8,0.434418,0,-1.0,1.0,0.8
2,3,3,58,0.8,0.454945,0,1.0,-1.0,-0.8
2,3,3,59,0.8,0.539707,0,1.0,1.0,0.8
2,3,3,60,-0.5,0.509043,1,1.0,1.0,0.8
2,3,3,61,-0.5,0.376314,1,1.0,1.0,-0.5
2,3,3,62,0.2,0.472047,0,1.0,1.0,-0.5
2,3,3,63,-0.5,0.48421,0,-1.0,1.0,0.2
2,3,3,64,-0.8,0.399226,1,1.0,-1.0,-0.5
2,3,3,65,-0.5,0.301911,1,1.0,1.0,-0.8
2,3,3,66,-0.2,0.560732,0,-1.0,1.0,-0.5
2,3,3,67,-0.8,0.513332,1,1.0,-1.0,-0.2
2,3,3,68,0.2,0.500221,0,1.0,1.0,-0.8
2,3,3,69,0.2,0.487074,1,-1.0,1.0,0.2
2,3,3,70,1.6,0.434478,0,1.0,-1.0,0.2
2,3,3,71,-0.5,0.472323,1,1.0,1.0,1.6
2,3,3,72,0.8,0.50779,0,1.0,1.0,-0.5
2,3,3,73,0.2,0.326568,1,-1.0,1.0,0.8
2,3,3,74,0.5,0.488629,0,1.0,-1.0,0.2
2,3,3,75,-0.2,0.459819,1,1.0,1.0,0.5
2,3,3,76,-0.2,0.440844,0,-1.0,1.0,-0.2
2,3,3,77,-0.8,0.414003,1,1.0,-1.0,-0.2
2,3,3,78,0.8,0.476808,0,1.0,1.0,-0.8
2,3,3,79,-0.2,0.416738,1,1.0,1.0,0.8
2,3,3,80,0.2,0.478886,0,1.0,1.0,-0.2
2,3,3,81,0.5,0.403,1,-1.0,1.0,0.2
2,3,3,82,-0.5,0.65021,1,1.0,-1.0,0.5
2,3,3,83,0.2,0.582361,1,-1.0,1.0,-0.5
2,3,3,84,-0.5,0.501829,0,-1.0,-1.0,0.2
2,3,3,85,0.5,0.392448,1,-1.0,-1.0,-0.5
2,3,3,86,-1.6,0.408669,1,1.0,-1.0,0.5
2,3,3,87,1.6,0.446614,0,1.0,1.0,-1.6
2,3,3,88,0.5,0.532685,0,1.0,1.0,1.6
2,3,3,89,-1.6,0.486152,1,1.0,1.0,0.5
2,3,3,90,0.8,0.552734,0,1.0,1.0,-1.6
2,3,3,91,0.5,0.3695,1,-1.0,1.0,0.8
2,3,3,92,0.2,0.601492,1,-1.0,-1.0,0.5
2,3,3,93,0.8,0.464362,0,1.0,-1.0,0.2
2,3,3,94,-0.2,0.581135,1,1.0,1.0,0.8
2,3,3,95,-0.5,0.517987,0,-1.0,1.0,-0.2
2,3,3,96,-1.6,0.639734,1,1.0,-1.0,-0.5
2,3,3,97,1.6,0.453545,0,1.0,1.0,-1.6
2,3,3,98,0.5,0.441144,1,-1.0,1.0,1.6
2,3,3,99,-1.6,0.534614,1,1.0,-1.0,0.5
2,3,3,100,0.2,0.46401,1,-1.0,1.0,-1.6
2,3,3,101,0.2,0.636632,1,-1.0,-1.0,0.2
2,3,3,102,-0.2,0.3061,1,1.0,-1.0,0.2
2,3,3,103,-0.2,0.588791,1,1.0,1.0,-0.2
2,3,3,104,-0.2,0.404192,1,1.0,1.0,-0.2
2,3,3,105,-0.2,0.659573,1,1.0,1.0,-0.2
2,3,3,106,-1.6,0.423651,1,1.0,1.0,-0.2
2,3,3,107,-0.2,0.4057,1,1.0,1.0,-1.6
2,3,3,108,-0.8,0.500613,1,1.0,1.0,-0.2
2,3,3,109,-1.6,0.375132,1,1.0,1.0,-0.8
2,3,3,110,0.2,0.407272,1,-1.0,1.0,-1.6
2,3,3,111,0.2,0.485915,0,1.0,-1.0,0.2
2,3,3,112,0.5,0.481291,0,1.0,1.0,0.2
2,3,3,113,-0.5,0.525256,1,1.0,1.0,0.5
2,3,3,114,0.5,0.479486,0,1.0,1.0,-0.5
2,3,3,115,0.2,0.507474,1,-1.0,1.0,0.5
2,3,3,116,-0.2,0.582087,1,1.0,-1.0,0.2
2,3,3,117,0.8,0.526125,0,1.0,1.0,-0.2
2,3,3,118,0.5,0.439618,0,1.0,1.0,0.8
2,3,3,119,-0.2,0.397117,1,1.0,1.0,0.5
2,3,3,120,0.5,0.46115,0,1.0,1.0,-0.2
2,3,3,121,0.2,0.393429,1,-1.0,1.0,0.5
2,3,3,122,1.6,0.400596,0,1.0,-1.0,0.2
2,3,3,123,-0.8,0.719226,1,1.0,1.0,1.6
2,3,3,124,0.5,0.569341,0,1.0,1.0,-0.8
2,3,3,125,0.2,0.46612,1,-1.0,1.0,0.5
2,3,3,126,-0.8,0.501597,1,1.0,-1.0,0.2
2,3,3,127,1.6,0.42433,0,1.0,1.0,-0.8
2,3,3,128,0.5,0.430643,1,-1.0,1.0,1.6
3,2,1,1,-0.2,0.543462,0,-1.0,0.0,-100.0
3,2,1,2,-1.6,0.360795,1,1.0,-1.0,-0.2
3,2,1,3,-0.5,0.537383,1,1.0,1.0,-1.6
3,2,1,4,0.5,0.51468,1,-1.0,1.0,-0.5
3,2,1,5,0.5,0.340976,0,1.0,-1.0,0.5
3,2,1,6,-0.5,0.566115,1,1.0,1.0,0.5
3,2,1,7,-0.5,0.582311,0,-1.0,1.0,-0.5
3,2,1,8,-0.8,0.525785,1,1.0,-1.0,-0.5
3,2,1,9,-1.6,0.431689,1,1.0,1.0,-0.8
3,2,1,10,0.5,0.49389,0,1.0,1.0,-1.6
3,2,1,11,-0.5,0.441232,0,-1.0,1.0,0.5
3,2,1,12,-0.2,0.502686,0,-1.0,-1.0,-0.5
3,2,1,13,1.6,0.433297,0,1.0,-1.0,-0.2
3,2,1,14,0.2,0.582709,0,1.0,1.0,1.6
3,2,1,15,-0.2,0.430088,1,1.0,1.0,0.2
3,2,1,16,0.2,0.476078,0,1.0,1.0,-0.2
3,2,1,17,0.2,0.376237,0,1.0,1.0,0.2
3,2,1,18,-0.5,0.360197,1,1.0,1.0,0.2
3,2,1,19,0.8,0.472928,1,-1.0,1.0,-0.5
3,2,1,20,-0.2,0.460977,1,1.0,-1.0,0.8
3,2,1,21,-0.2,0.43366,1,1.0,1.0,-0.2
3,2,1,22,0.5,0.407153,1,-1.0,1.0,-0.2
3,2,1,23,0.2,0.382594,0,1.0,-1.0,0.5
3,2,1,24,-0.5,0.413106,1,1.0,1.0,0.2
3,2,1,25,-0.8,0.483897,1,1.0,1.0,-0.5
3,2,1,26,0.2,0.487289,1,-1.0,1.0,-0.8
3,2,1,27,0.2,0.442713,0,1.0,-1.0,0.2
3,2,1,28,0.2,0.423955,1,-1.0,1.0,0.2
3,2,1,29,-0.2,0.430287,0,-1.0,-1.0,0.2
3,2,1,30,-0.2,0.484195,1,1.0,-1.0,-0.2
3,2,1,31,-0.5,0.639787,1,1.0,1.0,-0.2
3,2,1,32,-0.2,0.492972,1,1.0,1.0,-0.5
3,2,1,33,0.5,0.512436,0,1.0,1.0,-0.2
3,2,1,34,1.6,0.419094,0,1.0,1.0,0.5
3,2,1,35,-0.5,0.489098,1,1.0,1.0,1.6
3,2,1,36,0.5,0.50865,0,1.0,1.0,-0.5
3,2,1,37,-0.8,0.479344,1,1.0,1.0,0.5
3,2,1,38,-1.6,0.699852,0,-1.0,1.0,-0.8
3,2,1,39,-0.2,0.622205,0,-1.0,-1.0,-1.6
3,2,1,40,0.2,0.548211,0,1.0,-1.0,-0.2
3,2,1,41,-0.5,0.444816,1,1.0,1.0,0.2
3,2,1,42,-0.8,0.466112,1,1.0,1.0,-0.5
3,2,1,43,0.2,0.422267,0,1.0,1.0,-0.8
3,2,1,44,-0.2,0.388351,0,-1.0,1.0,0.2
3,2,1,45,-0.2,0.411702,0,-1.0,-1.0,-0.2
3,2,1,46,0.5,0.514405,1,-1.0,-1.0,-0.2
3,2,1,47,0.2,0.493086,0,1.0,-1.0,0.5
3,2,1,48,-0.2,0.544443,1,1.0,1.0,0.2
3,2,1,49,0.5,0.465838,1,-1.0,1.0,-0.2
3,2,1,50,0.5,0.494074,1,-1.0,-1.0,0.5
3,2,1,51,-0.5,0.593345,1,1.0,-1.0,0.5
3,2,1,52,0.8,0.408923,0,1.0,1.0,-0.5
3,2,1,53,0.2,0.43164,0,1.0,1.0,0.8
3,2,1,54,0.2,0.365733,0,1.0,1.0,0.2
3,2,1,55,-1.6,0.422196,1,1.0,1.0,0.2
3,2,1,56,0.8,0.500276,0,1.0,1.0,-1.6
3,2,1,57,-0.8,0.495098,1,1.0,1.0,0.8
3,2,1,58,0.8,0.570481,0,1.0,1.0,-0.8
3,2,1,59,-0.5,0.522477,1,1.0,1.0,0.8
3,2,1,60,-0.2,0.668535,0,-1.0,1.0,-0.5
3,2,1,61,0.5,0.576659,0,1.0,-1.0,-0.2
3,2,1,62,-0.8,0.464673,1,1.0,1.0,0.5
3,2,1,63,0.2,0.58138,0,1.0,1.0,-0.8
3,2,1,64,1.6,0.325648,0,1.0,1.0,0.2
3,2,1,65,0.2,0.423387,1,-1.0,1.0,1.6
3,2,1,66,-1.6,0.405487,1,1.0,-1.0,0.2
3,2,1,67,0.5,0.572431,0,1.0,1.0,-1.6
3,2,1,68,-0.5,0.428335,0,-1.0,1.0,0.5
3,2,1,69,0.5,0.490359,1,-1.0,-1.0,-0.5
3,2,1,70,-0.2,0.533789,1,1.0,-1.0,0.5
3,2,1,71,0.2,0.47929,0,1.0,1.0,-0.2
3,2,1,72,-0.8,0.395304,1,1.0,1.0,0.2
3,2,1,73,0.8,0.56274,0,1.0,1.0,-0.8
3,2,1,74,-0.2,0.387248,0,-1.0,1.0,0.8
3,2,1,75,-0.8,0.410761,1,1.0,-1.0,-0.2
3,2,1,76,-1.6,0.313518,1,1.0,1.0,-0.8
3,2,1,77,0.2,0.308109,1,-1.0,1.0,-1.6
3,2,1,78,1.6,0.35103,1,-1.0,-1.0,0.2
3,2,1,79,-0.5,0.551836,1,1.0,-1.0,1.6
3,2,1,80,0.5,0.496273,0,1.0,1.0,-0.5
3,2,1,81,-0.5,0.555685,1,1.0,1.0,0.5
3,2,1,82,-0.8,0.45236,1,1.0,1.0,-0.5
3,2,1,83,-0.2,0.497041,1,1.0,1.0,-0.8
3,2,1,84,-0.2,0.468636,1,1.0,1.0,-0.2
3,2,1,85,1.6,0.472779,0,1.0,1.0,-0.2
3,2,1,86,-0.5,0.500719,1,1.0,1.0,1.6
3,2,1,87,0.2,0.439537,0,1.0,1.0,-0.5
3,2,1,88,0.2,0.476907,0,1.0,1.0,0.2
3,2,1,89,0.2,0.640986,0,1.0,1.0,0.2
3,2,1,90,0.2,0.574171,0,1.0,1.0,0.2
3,2,1,91,-0.5,0.710353,1,1.0,1.0,0.2
3,2,1,92,-0.8,0.376893,1,1.0,1.0,-0.5
3,2,1,94,-1.6,0.569666,1,1.0,0.0,0.5
3,2,1,95,0.8,0.497817,1,-1.0,1.0,-1.6
3,2,1,96,-0.2,0.373723,0,-1.0,-1.0,0.8
3,2,1,97,0.8,0.413224,1,-1.0,-1.0,-0.2
3,2,1,98,1.6,0.380125,0,1.0,-1.0,0.8
3,2,1,99,-0.2,0.540212,0,-1.0,1.0,1.6
3,2,1,100,-0.8,0.565618,1,1.0,-1.0,-0.2
3,2,1,101,0.5,0.550248,0,1.0,1.0,-0.8
3,2,1,102,0.2,0.559106,0,1.0,1.0,0.5
3,2,1,103,-0.2,0.415688,1,1.0,1.0,0.2
3,2,1,104,0.2,0.509581,1,-1.0,1.0,-0.2
3,2,1,105,-0.5,0.392446,1,1.0,-1.0,0.2
3,2,1,106,0.5,0.431844,0,1.0,1.0,-0.5
3,2,1,107,-0.5,0.54934,1,1.0,1.0,0.5
3,2,1,108,0.8,0.565993,0,1.0,1.0,-0.5
3,2,1,109,-0.5,0.51015,1,1.0,1.0,0.8
3,2,1,110,0.5,0.384804,1,-1.0,1.0,-0.5
3,2,1,111,0.8,0.40895,0,1.0,-1.0,0.5
3,2,1,112,-1.6,0.430872,1,1.0,1.0,0.8
3,2,1,113,-0.2,0.612992,1,1.0,1.0,-1.6
3,2,1,114,1.6,0.483666,0,1.0,1.0,-0.2
3,2,1,116,-0.5,0.485103,1,1.0,0.0,-0.2
3,2,1,117,0.2,0.544506,0,1.0,1.0,-0.5
3,2,1,118,0.8,0.561837,0,1.0,1.0,0.2
3,2,1,119,0.5,0.450727,0,1.0,1.0,0.8
3,2,1,120,0.2,0.543441,0,1.0,1.0,0.5
3,2,1,121,0.5,0.392622,0,1.0,1.0,0.2
3,2,1,122,0.5,0.472271,0,1.0,1.0,0.5
3,2,1,123,-0.2,0.48416,1,1.0,1.0,0.5
3,2,1,124,0.8,0.45568,0,1.0,1.0,-0.2
3,2,1,125,-0.2,0.388479,0,-1.0,1.0,0.8
3,2,1,126,1.6,0.395557,0,1.0,-1.0,-0.2
3,2,1,127,0.8,0.627206,0,1.0,1.0,1.6
3,2,1,128,-0.8,0.408998,1,1.0,1.0,0.8
3,3,1,1,0.2,0.564724,1,-1.0,0.0,-100.0
3,3,1,2,0.5,0.429886,0,1.0,-1.0,0.2
3,3,1,3,-0.5,0.387503,1,1.0,1.0,0.5
3,3,1,4,0.2,0.68297,0,1.0,1.0,-0.5
3,3,1,5,-0.5,0.398326,1,1.0,1.0,0.2
3,3,1,6,-0.8,0.373178,1,1.0,1.0,-0.5
3,3,1,7,-0.8,0.37306,1,1.0,1.0,-0.8
3,3,1,8,0.8,0.47722,0,1.0,1.0,-0.8
3,3,1,9,0.2,0.409234,1,-1.0,1.0,0.8
3,3,1,10,-0.5,0.560078,1,1.0,-1.0,0.2
3,3,1,11,0.2,0.424489,1,-1.0,1.0,-0.5
3,3,1,12,0.2,0.398551,1,-1.0,-1.0,0.2
3,3,1,13,-0.2,0.41334,1,1.0,-1.0,0.2
3,3,1,14,0.5,0.676118,0,1.0,1.0,-0.2
3,3,1,15,-0.2,0.424137,1,1.0,1.0,0.5
3,3,1,16,-0.5,0.398199,1,1.0,1.0,-0.2
3,3,1,17,-0.2,0.389472,1,1.0,1.0,-0.5
3,3,1,18,-0.2,0.309053,1,1.0,1.0,-0.2
3,3,1,19,-1.6,0.287702,1,1.0,1.0,-0.2
3,3,1,20,-0.2,0.490989,1,1.0,1.0,-1.6
3,3,1,21,0.2,0.382476,1,-1.0,1.0,-0.2
3,3,1,22,0.2,0.333891,1,-1.0,-1.0,0.2
3,3,1,23,-0.8,0.447193,1,1.0,-1.0,0.2
3,3,1,24,0.2,0.548813,0,1.0,1.0,-0.8
3,3,1,25,-0.2,0.694285,1,1.0,1.0,0.2
3,3,1,26,0.2,0.689395,1,-1.0,1.0,-0.2
3,3,1,27,0.5,0.564804,0,1.0,-1.0,0.2
3,3,1,28,-0.5,0.517508,1,1.0,1.0,0.5
3,3,1,29,1.6,0.199695,0,1.0,1.0,-0.5
3,3,1,30,0.2,0.670395,0,1.0,1.0,1.6
3,3,1,31,0.8,0.41058,0,1.0,1.0,0.2
3,3,1,32,0.2,0.54596,0,1.0,1.0,0.8
3,3,1,33,-0.5,0.33066,0,-1.0,1.0,0.2
3,3,1,34,-1.6,0.612574,1,1.0,-1.0,-0.5
3,3,1,35,-1.6,0.379184,1,1.0,1.0,-1.6
3,3,1,36,-0.5,0.299385,1,1.0,1.0,-1.6
3,3,1,37,0.2,0.334735,1,-1.0,1.0,-0.5
3,3,1,38,-0.5,0.407484,1,1.0,-1.0,0.2
3,3,1,39,-0.8,0.309973,1,1.0,1.0,-0.5
3,3,1,40,0.2,0.361072,0,1.0,1.0,-0.8
3,3,1,41,1.6,0.377661,0,1.0,1.0,0.2
3,3,1,42,-0.5,0.289677,0,-1.0,1.0,1.6
3,3,1,43,-0.5,0.629137,1,1.0,-1.0,-0.5
3,3,1,44,-0.5,0.515043,1,1.0,1.0,-0.5
3,3,1,45,-0.8,0.39778,1,1.0,1.0,-0.5
3,3,1,46,0.5,0.501308,0,1.0,1.0,-0.8
3,3,1,47,-0.2,0.41596,0,-1.0,1.0,0.5
3,3,1,48,0.2,0.382148,0,1.0,-1.0,-0.2
3,3,1,49,0.2,0.270069,0,1.0,1.0,0.2
3,3,1,50,0.8,0.370862,0,1.0,1.0,0.2
3,3,1,51,-0.8,0.298134,0,-1.0,1.0,0.8
3,3,1,52,-0.2,0.22952,0,-1.0,-1.0,-0.8
3,3,1,53,-0.8,0.411505,1,1.0,-1.0,-0.2
3,3,1,54,-0.5,0.418226,0,-1.0,1.0,-0.8
3,3,1,55,-0.8,0.368605,0,-1.0,-1.0,-0.5
3,3,1,56,-0.5,0.44831,1,1.0,-1.0,-0.8
3,3,1,57,0.5,0.485878,0,1.0,1.0,-0.5
3,3,1,58,0.8,0.441224,0,1.0,1.0,0.5
3,3,1,60,0.5,0.58106,0,1.0,0.0,0.2
3,3,1,61,-0.5,0.517418,1,1.0,1.0,0.5
3,3,1,62,-0.2,0.57467,1,1.0,1.0,-0.5
3,3,1,63,-0.2,0.470895,0,-1.0,1.0,-0.2
3,3,1,64,0.5,0.48288,0,1.0,-1.0,-0.2
3,3,1,65,1.6,0.4783,0,1.0,1.0,0.5
3,3,1,66,-0.5,0.418259,1,1.0,1.0,1.6
3,3,1,67,0.5,0.456236,1,-1.0,1.0,-0.5
3,3,1,68,0.2,0.549156,1,-1.0,-1.0,0.5
3,3,1,69,0.5,0.477796,1,-1.0,-1.0,0.2
3,3,1,70,0.8,0.410073,0,1.0,-1.0,0.5
3,3,1,71,-0.5,0.384539,0,-1.0,1.0,0.8
3,3,1,72,0.8,0.336013,0,1.0,-1.0,-0.5
3,3,1,73,-1.6,0.53732,1,1.0,1.0,0.8
3,3,1,74,0.2,0.474661,0,1.0,1.0,-1.6
3,3,1,75,0.8,0.447178,0,1.0,1.0,0.2
3,3,1,76,-0.5,0.492111,1,1.0,1.0,0.8
3,3,1,77,-0.2,0.399539,0,-1.0,1.0,-0.5
3,3,1,78,-0.2,0.486312,0,-1.0,-1.0,-0.2
3,3,1,79,0.2,0.45761,0,1.0,-1.0,-0.2
3,3,1,80,0.5,0.558556,0,1.0,1.0,0.2
3,3,1,81,-0.2,0.279198,0,-1.0,1.0,0.5
3,3,1,82,0.2,0.467147,0,1.0,-1.0,-0.2
3,3,1,83,1.6,0.471319,0,1.0,1.0,0.2
3,3,1,84,0.5,0.379198,0,1.0,1.0,1.6
3,3,1,85,0.5,0.507341,0,1.0,1.0,0.5
3,3,1,86,1.6,0.398174,0,1.0,1.0,0.5
3,3,1,87,-0.5,0.381406,0,-1.0,1.0,1.6
3,3,1,88,0.2,0.501606,0,1.0,-1.0,-0.5
3,3,1,89,0.5,0.42432,0,1.0,1.0,0.2
3,3,1,90,0.5,0.510409,0,1.0,1.0,0.5
3,3,1,91,0.5,0.353113,0,1.0,1.0,0.5
3,3,1,92,-0.2,0.521694,1,1.0,1.0,0.5
3,3,1,93,-1.6,0.419664,1,1.0,1.0,-0.2
3,3,1,94,-0.8,0.43399,1,1.0,1.0,-1.6
3,3,1,95,-0.2,0.407235,0,-1.0,1.0,-0.8
3,3,1,96,0.5,0.397864,1,-1.0,-1.0,-0.2
3,3,1,97,0.8,0.341249,1,-1.0,-1.0,0.5
3,3,1,98,-0.2,0.326581,1,1.0,-1.0,0.8
3,3,1,99,1.6,0.336736,0,1.0,1.0,-0.2
3,3,1,100,-1.6,0.339173,0,-1.0,1.0,1.6
3,3,1,101,0.8,0.331562,0,1.0,-1.0,-1.6
3,3,1,102,0.2,0.372841,1,-1.0,1.0,0.8
3,3,1,103,1.6,0.36484,1,-1.0,-1.0,0.2
3,3,1,104,0.8,0.509767,0,1.0,-1.0,1.6
3,3,1,105,-0.5,0.448446,1,1.0,1.0,0.8
3,3,1,106,-0.2,0.374577,1,1.0,1.0,-0.5
3,3,1,107,-0.8,0.349822,1,1.0,1.0,-0.2
3,3,1,108,-0.2,0.366641,1,1.0,1.0,-0.8
3,3,1,109,-0.2,0.446764,1,1.0,1.0,-0.2
3,3,1,110,-0.2,0.316025,1,1.0,1.0,-0.2
3,3,1,111,0.8,0.342111,1,-1.0,1.0,-0.2
3,3,1,112,-0.2,0.431525,0,-1.0,-1.0,0.8
3,3,1,113,0.5,0.42954,1,-1.0,-1.0,-0.2
3,3,1,114,0.2,0.403576,0,1.0,-1.0,0.5
3,3,1,115,0.5,0.52232,0,1.0,1.0,0.2
3,3,1,116,-0.2,0.484242,0,-1.0,1.0,0.5
3,3,1,117,0.5,0.407915,0,1.0,-1.0,-0.2
3,3,1,118,-0.2,0.318453,0,-1.0,1.0,0.5
3,3,1,119,-1.6,0.464438,1,1.0,-1.0,-0.2
3,3,1,120,0.8,0.709717,1,-1.0,1.0,-1.6
3,3,1,121,1.6,0.584594,0,1.0,-1.0,0.8
3,3,1,122,-0.8,0.519389,1,1.0,1.0,1.6
3,3,1,123,0.2,0.609272,0,1.0,1.0,-0.8
3,3,1,124,0.5,0.560118,0,1.0,1.0,0.2
3,3,1,125,-0.8,0.408882,1,1.0,1.0,0.5
3,3,1,126,-1.6,0.455699,1,1.0,1.0,-0.8
3,3,1,127,-0.2,0.572218,0,-1.0,1.0,-1.6
3,3,1,128,-0.5,0.412556,1,1.0,-1.0,-0.2
3,1,2,1,-0.2,0.460649,1,1.0,0.0,-100.0
3,1,2,2,0.8,0.337149,0,1.0,1.0,-0.2
3,1,2,3,0.5,0.570758,1,-1.0,1.0,0.8
3,1,2,4,0.8,0.370597,1,-1.0,-1.0,0.5
3,1,2,5,0.2,0.546767,1,-1.0,-1.0,0.8
3,1,2,6,0.8,0.532245,0,1.0,-1.0,0.2
3,1,2,7,-0.2,0.493601,1,1.0,1.0,0.8
3,1,2,8,-0.5,0.344876,1,1.0,1.0,-0.2
3,1,2,9,0.5,0.546239,1,-1.0,1.0,-0.5
3,1,2,10,0.2,0.371786,0,1.0,-1.0,0.5
3,1,2,11,0.2,0.315848,0,1.0,1.0,0.2
3,1,2,12,-0.2,0.581953,0,-1.0,1.0,0.2
3,1,2,13,-0.2,0.437778,1,1.0,-1.0,-0.2
3,1,2,14,-0.8,0.555217,1,1.0,1.0,-0.2
3,1,2,15,-0.5,0.515838,1,1.0,1.0,-0.8
3,1,2,16,-1.6,0.390122,1,1.0,1.0,-0.5
3,1,2,17,1.6,0.349468,0,1.0,1.0,-1.6
3,1,2,18,0.2,0.614113,1,-1.0,1.0,1.6
3,1,2,19,0.8,0.372836,0,1.0,-1.0,0.2
3,1,2,20,-0.2,0.364759,0,-1.0,1.0,0.8
3,1,2,21,-0.2,0.333828,0,-1.0,-1.0,-0.2
3,1,2,22,0.2,0.447093,0,1.0,-1.0,-0.2
3,1,2,23,0.2,0.348233,0,1.0,1.0,0.2
3,1,2,24,0.2,0.357788,0,1.0,1.0,0.2
3,1,2,25,0.2,0.430528,0,1.0,1.0,0.2
3,1,2,26,-0.8,0.396416,0,-1.0,1.0,0.2
3,1,2,27,0.8,0.371943,0,1.0,-1.0,-0.8
3,1,2,28,0.5,0.364102,0,1.0,1.0,0.8
3,1,2,29,-0.2,0.372818,0,-1.0,1.0,0.5
3,1,2,30,-0.5,0.484731,1,1.0,-1.0,-0.2
3,1,2,31,-0.5,0.456197,0,-1.0,1.0,-0.5
3,1,2,32,-0.8,0.452836,1,1.0,-1.0,-0.5
3,1,2,33,-0.5,0.40169,1,1.0,1.0,-0.8
3,1,2,34,0.8,0.320416,0,1.0,1.0,-0.5
3,1,2,35,-0.5,0.410284,1,1.0,1.0,0.8
3,1,2,36,-0.8,0.385007,1,1.0,1.0,-0.5
3,1,2,37,0.2,0.384415,0,1.0,1.0,-0.8
3,1,2,38,-0.8,0.455839,0,-1.0,1.0,0.2
3,1,2,39,-0.2,0.292553,0,-1.0,-1.0,-0.8
3,1,2,40,-0.8,0.319934,0,-1.0,-1.0,-0.2
3,1,2,41,0.5,0.40201,0,1.0,-1.0,-0.8
3,1,2,42,-0.2,0.304713,0,-1.0,1.0,0.5
3,1,2,43,0.2,0.3714,0,1.0,-1.0,-0.2
3,1,2,44,0.5,0.403587,0,1.0,1.0,0.2
3,1,2,45,0.5,0.338425,0,1.0,1.0,0.5
3,1,2,46,0.5,0.371611,0,1.0,1.0,0.5
3,1,2,47,-0.5,0.459569,1,1.0,1.0,0.5
3,1,2,48,-0.8,0.616182,1,1.0,1.0,-0.5
3,1,2,49,0.5,0.478562,0,1.0,1.0,-0.8
3,1,2,50,-0.5,0.458428,1,1.0,1.0,0.5
3,1,2,51,0.8,0.359282,0,1.0,1.0,-0.5
3,1,2,52,-0.5,0.439934,1,1.0,1.0,0.8
3,1,2,53,0.5,0.405312,0,1.0,1.0,-0.5
3,1,2,54,-0.5,0.356157,1,1.0,1.0,0.5
3,1,2,55,-0.2,0.380653,0,-1.0,1.0,-0.5
3,1,2,56,0.2,0.460832,0,1.0,-1.0,-0.2
3,1,2,57,1.6,0.425717,0,1.0,1.0,0.2
3,1,2,58,-0.5,0.479561,1,1.0,1.0,1.6
3,1,2,59,1.6,0.395758,0,1.0,1.0,-0.5
3,1,2,60,0.5,0.363131,0,1.0,1.0,1.6
3,1,2,61,-1.6,0.387685,1,1.0,1.0,0.5
3,1,2,62,0.8,0.363048,0,1.0,1.0,-1.6
3,1,2,63,0.5,0.331849,0,1.0,1.0,0.8
3,1,2,64,0.2,0.461909,1,-1.0,1.0,0.5
3,1,2,65,-0.2,0.314558,1,1.0,-1.0,0.2
3,1,2,66,-0.5,0.28554,0,-1.0,1.0,-0.2
3,1,2,67,-0.8,0.384731,0,-1.0,-1.0,-0.5
3,1,2,68,-0.2,0.504101,1,1.0,-1.0,-0.8
3,1,2,69,0.5,0.323075,0,1.0,1.0,-0.2
3,1,2,70,0.2,0.332853,0,1.0,1.0,0.5
3,1,2,71,-0.2,0.390257,0,-1.0,1.0,0.2
3,1,2,72,1.6,0.365515,0,1.0,-1.0,-0.2
3,1,2,73,-0.2,0.470468,1,1.0,1.0,1.6
3,1,2,74,1.6,0.362319,0,1.0,1.0,-0.2
3,1,2,75,-1.6,0.467078,1,1.0,1.0,1.6
3,1,2,76,-0.2,0.550991,1,1.0,1.0,-1.6
3,1,2,77,0.5,0.335824,0,1.0,1.0,-0.2
3,1,2,78,0.5,0.32125,0,1.0,1.0,0.5
3,1,2,79,0.2,0.507286,0,1.0,1.0,0.5
3,1,2,80,0.5,0.398276,0,1.0,1.0,0.2
3,1,2,81,0.5,0.37342,0,1.0,1.0,0.5
3,1,2,82,0.8,0.365609,0,1.0,1.0,0.5
3,1,2,83,-0.2,0.317593,0,-1.0,1.0,0.8
3,1,2,84,0.2,0.383879,0,1.0,-1.0,-0.2
3,1,2,85,0.8,0.311151,0,1.0,1.0,0.2
3,1,2,86,0.2,0.401985,0,1.0,1.0,0.8
3,1,2,87,0.2,0.440395,1,-1.0,1.0,0.2
3,1,2,88,0.8,0.397972,0,1.0,-1.0,0.2
3,1,2,89,0.5,0.36523,0,1.0,1.0,0.8
3,1,2,90,-0.8,0.277897,0,-1.0,1.0,0.5
3,1,2,91,0.2,0.306306,0,1.0,-1.0,-0.8
3,1,2,92,-1.6,0.324862,0,-1.0,1.0,0.2
3,1,2,93,-0.2,0.486893,0,-1.0,-1.0,-1.6
3,1,2,94,1.6,0.450154,0,1.0,-1.0,-0.2
3,1,2,95,-1.6,0.414786,1,1.0,1.0,1.6
3,1,2,96,1.6,0.332798,0,1.0,1.0,-1.6
3,1,2,97,-0.5,0.478342,0,-1.0,1.0,1.6
3,1,2,98,-0.2,0.522181,1,1.0,-1.0,-0.5
3,1,2,99,-0.5,0.444342,1,1.0,1.0,-0.2
3,1,2,100,-0.8,0.465876,1,1.0,1.0,-0.5
3,1,2,101,-0.2,0.413679,0,-1.0,1.0,-0.8
3,1,2,102,-0.5,0.484626,0,-1.0,-1.0,-0.2
3,1,2,103,-0.8,0.432102,0,-1.0,-1.0,-0.5
3,1,2,104,0.2,0.421253,0,1.0,-1.0,-0.8
3,1,2,105,-0.5,0.475553,0,-1.0,1.0,0.2
3,1,2,106,-0.2,0.479432,0,-1.0,-1.0,-0.5
3,1,2,107,0.2,0.459644,0,1.0,-1.0,-0.2
3,1,2,108,0.2,0.400254,0,1.0,1.0,0.2
3,1,2,109,-0.2,0.406932,0,-1.0,1.0,0.2
3,1,2,110,-0.2,0.397549,0,-1.0,-1.0,-0.2
3,1,2,111,-0.2,0.468991,0,-1.0,-1.0,-0.2
3,1,2,112,-0.5,0.393027,0,-1.0,-1.0,-0.2
3,1,2,113,-0.5,0.376537,0,-1.0,-1.0,-0.5
3,1,2,114,-0.8,0.424362,1,1.0,-1.0,-0.5
3,1,2,115,-1.6,0.366678,1,1.0,1.0,-0.8
3,1,2,116,0.5,0.278689,1,-1.0,1.0,-1.6
3,1,2,117,0.2,0.586664,0,1.0,-1.0,0.5
3,1,2,118,0.5,0.362228,0,1.0,1.0,0.2
3,1,2,119,0.8,0.338881,0,1.0,1.0,0.5
3,1,2,120,-0.5,0.484062,1,1.0,1.0,0.8
3,1,2,121,-0.5,0.447593,1,1.0,1.0,-0.5
3,1,2,122,-1.6,0.397127,1,1.0,1.0,-0.5
3,1,2,123,-0.2,0.588398,0,-1.0,1.0,-1.6
3,1,2,124,0.5,0.459794,0,1.0,-1.0,-0.2
3,1,2,125,1.6,0.336546,0,1.0,1.0,0.5
3,1,2,126,0.2,0.281915,0,1.0,1.0,1.6
3,1,2,127,-1.6,0.413736,1,1.0,1.0,0.2
3,1,2,128,0.2,0.508601,0,1.0,1.0,-1.6
3,2,2,1,-0.2,0.432809,1,1.0,0.0,-100.0
3,2,2,2,-0.5,0.405566,1,1.0,1.0,-0.2
3,2,2,3,-0.5,0.32383,1,1.0,1.0,-0.5
3,2,2,4,-0.8,0.502614,1,1.0,1.0,-0.5
3,2,2,5,-0.5,0.3374,1,1.0,1.0,-0.8
3,2,2,6,1.6,0.402129,0,1.0,1.0,-0.5
3,2,2,7,-0.8,0.416638,1,1.0,1.0,1.6
3,2,2,8,0.5,0.359467,0,1.0,1.0,-0.8
3,2,2,9,-0.8,0.416104,1,1.0,1.0,0.5
3,2,2,10,0.8,0.429563,0,1.0,1.0,-0.8
3,2,2,11,0.2,0.563545,0,1.0,1.0,0.8
3,2,2,12,-0.5,0.404958,1,1.0,1.0,0.2
3,2,2,13,0.5,0.386904,0,1.0,1.0,-0.5
3,2,2,14,0.5,0.442373,0,1.0,1.0,0.5
3,2,2,15,-0.8,0.399758,1,1.0,1.0,0.5
3,2,2,16,-0.5,0.551338,0,-1.0,1.0,-0.8
3,2,2,17,0.2,0.399147,0,1.0,-1.0,-0.5
3,2,2,18,-0.2,0.477817,1,1.0,1.0,0.2
3,2,2,19,-0.5,0.409972,1,1.0,1.0,-0.2
3,2,2,20,0.5,0.353469,0,1.0,1.0,-0.5
3,2,2,21,0.2,0.442,1,-1.0,1.0,0.5
3,2,2,22,0.5,0.390773,0,1.0,-1.0,0.2
3,2,2,23,0.5,0.350113,0,1.0,1.0,0.5
3,2,2,24,1.6,0.366787,0,1.0,1.0,0.5
3,2,2,25,-0.8,0.375804,1,1.0,1.0,1.6
3,2,2,26,0.2,0.478973,0,1.0,1.0,-0.8
3,2,2,27,-0.2,0.363768,1,1.0,1.0,0.2
3,2,2,28,0.2,0.388648,0,1.0,1.0,-0.2
3,2,2,29,-0.5,0.55529,1,1.0,1.0,0.2
3,2,2,30,0.5,0.371878,0,1.0,1.0,-0.5
3,2,2,31,-0.5,0.364056,0,-1.0,1.0,0.5
3,2,2,32,-0.5,0.357335,0,-1.0,-1.0,-0.5
3,2,2,33,0.8,0.381443,0,1.0,-1.0,-0.5
3,2,2,34,-1.6,0.397324,1,1.0,1.0,0.8
3,2,2,35,-1.6,0.452793,1,1.0,1.0,-1.6
3,2,2,36,-0.2,0.522261,0,-1.0,1.0,-1.6
3,2,2,37,-0.8,0.468517,1,1.0,-1.0,-0.2
3,2,2,38,1.6,0.391811,0,1.0,1.0,-0.8
3,2,2,39,0.2,0.599708,0,1.0,1.0,1.6
3,2,2,40,0.2,0.374478,0,1.0,1.0,0.2
3,2,2,41,-0.2,0.398437,0,-1.0,1.0,0.2
3,2,2,42,-0.2,0.493193,0,-1.0,-1.0,-0.2
3,2,2,43,-1.6,0.376597,1,1.0,-1.0,-0.2
3,2,2,44,-0.5,0.449248,0,-1.0,1.0,-1.6
3,2,2,45,0.8,0.453958,0,1.0,-1.0,-0.5
3,2,2,46,-0.8,0.506174,1,1.0,1.0,0.8
3,2,2,47,-0.2,0.428734,0,-1.0,1.0,-0.8
3,2,2,48,0.5,0.426937,0,1.0,-1.0,-0.2
3,2,2,49,0.2,0.465815,0,1.0,1.0,0.5
3,2,2,50,0.8,0.356994,0,1.0,1.0,0.2
3,2,2,51,0.8,0.309619,0,1.0,1.0,0.8
3,2,2,52,-0.5,0.377149,1,1.0,1.0,0.8
3,2,2,53,1.6,0.401239,0,1.0,1.0,-0.5
3,2,2,54,-0.2,0.422951,1,1.0,1.0,1.6
3,2,2,55,0.8,0.373325,0,1.0,1.0,-0.2
3,2,2,56,-0.2,0.518007,0,-1.0,1.0,0.8
3,2,2,57,0.2,0.424151,0,1.0,-1.0,-0.2
3,2,2,58,-1.6,0.389313,1,1.0,1.0,0.2
3,2,2,59,0.5,0.476654,0,1.0,1.0,-1.6
3,2,2,60,-0.2,0.401458,0,-1.0,1.0,0.5
3,2,2,61,-0.8,0.392446,1,1.0,-1.0,-0.2
3,2,2,62,0.2,0.342975,0,1.0,1.0,-0.8
3,2,2,63,-1.6,0.336925,1,1.0,1.0,0.2
3,2,2,64,1.6,0.306438,0,1.0,1.0,-1.6
3,2,2,65,0.5,0.349453,1,-1.0,1.0,1.6
3,2,2,66,-0.5,0.469042,1,1.0,-1.0,0.5
3,2,2,67,0.5,0.529002,1,-1.0,1.0,-0.5
3,2,2,68,0.2,0.363823,0,1.0,-1.0,0.5
3,2,2,69,-0.5,0.404618,0,-1.0,1.0,0.2
3,2,2,70,0.2,0.410558,1,-1.0,-1.0,-0.5
3,2,2,71,-0.8,0.425448,0,-1.0,-1.0,0.2
3,2,2,72,0.2,0.375959,0,1.0,-1.0,-0.8
3,2,2,73,0.8,0.488526,0,1.0,1.0,0.2
3,2,2,75,-0.2,0.552906,0,-1.0,0.0,-0.2
3,2,2,76,0.8,0.409749,0,1.0,-1.0,-0.2
3,2,2,77,-1.6,0.408518,1,1.0,1.0,0.8
3,2,2,78,1.6,0.406512,0,1.0,1.0,-1.6
3,2,2,79,0.5,0.573066,0,1.0,1.0,1.6
3,2,2,80,0.5,0.502247,0,1.0,1.0,0.5
3,2,2,81,0.8,0.360869,0,1.0,1.0,0.5
3,2,2,82,-0.8,0.448565,0,-1.0,1.0,0.8
3,2,2,83,0.5,0.405437,0,1.0,-1.0,-0.8
3,2,2,84,0.2,0.492988,0,1.0,1.0,0.5
3,2,2,85,-0.2,0.488493,0,-1.0,1.0,0.2
3,2,2,86,-0.2,0.522865,0,-1.0,-1.0,-0.2
3,2,2,87,-0.5,0.445567,1,1.0,-1.0,-0.2
3,2,2,88,-0.2,0.538834,0,-1.0,1.0,-0.5
3,2,2,89,0.2,0.3807,0,1.0,-1.0,-0.2
3,2,2,90,-0.2,0.507753,0,-1.0,1.0,0.2
3,2,2,91,0.2,0.406577,0,1.0,-1.0,-0.2
3,2,2,92,0.5,0.341274,0,1.0,1.0,0.2
3,2,2,94,-0.2,0.378651,0,-1.0,0.0,-0.5
3,2,2,95,0.5,0.370654,0,1.0,-1.0,-0.2
3,2,2,96,-0.2,0.483597,1,1.0,1.0,0.5
3,2,2,97,0.8,0.350501,0,1.0,1.0,-0.2
3,2,2,98,0.5,0.470925,0,1.0,1.0,0.8
3,2,2,99,-0.2,0.355676,0,-1.0,1.0,0.5
3,2,2,100,0.2,0.444168,0,1.0,-1.0,-0.2
3,2,2,101,0.5,0.329983,0,1.0,1.0,0.2
3,2,2,102,-0.5,0.363116,0,-1.0,1.0,0.5
3,2,2,103,-1.6,0.475812,1,1.0,-1.0,-0.5
3,2,2,104,0.2,0.391865,0,1.0,1.0,-1.6
3,2,2,105,0.2,0.360168,0,1.0,1.0,0.2
3,2,2,106,-0.5,0.375997,0,-1.0,1.0,0.2
3,2,2,107,0.8,0.407926,0,1.0,-1.0,-0.5
3,2,2,108,1.6,0.359537,0,1.0,1.0,0.8
3,2,2,109,-0.2,0.472379,0,-1.0,1.0,1.6
3,2,2,110,0.5,0.395507,1,-1.0,-1.0,-0.2
3,2,2,111,-0.2,0.403422,1,1.0,-1.0,0.5
3,2,2,112,-0.2,0.378381,1,1.0,1.0,-0.2
3,2,2,113,-1.6,0.41863,1,1.0,1.0,-0.2
3,2,2,114,-0.2,0.399736,1,1.0,1.0,-1.6
3,2,2,115,0.2,0.414483,1,-1.0,1.0,-0.2
3,2,2,116,-0.5,0.365867,1,1.0,-1.0,0.2
3,2,2,117,-0.5,0.405186,1,1.0,1.0,-0.5
3,2,2,118,0.8,0.411894,0,1.0,1.0,-0.5
3,2,2,119,0.2,0.474627,0,1.0,1.0,0.8
3,2,2,120,0.2,0.407446,0,1.0,1.0,0.2
3,2,2,121,-0.8,0.366236,1,1.0,1.0,0.2
3,2,2,122,-0.5,0.541523,0,-1.0,1.0,-0.8
3,2,2,123,0.5,0.343663,0,1.0,-1.0,-0.5
3,2,2,124,0.2,0.408897,1,-1.0,1.0,0.5
3,2,2,125,-0.8,0.535684,1,1.0,-1.0,0.2
3,2,2,126,0.2,0.376346,0,1.0,1.0,-0.8
3,2,2,127,-0.2,0.53624,1,1.0,1.0,0.2
3,2,2,128,1.6,0.370442,0,1.0,1.0,-0.2
3,3,2,1,-0.2,0.391905,1,1.0,0.0,-100.0
3,3,2,2,0.8,0.351889,0,1.0,1.0,-0.2
3,3,2,3,-0.5,0.408052,1,1.0,1.0,0.8
3,3,2,4,1.6,0.318792,0,1.0,1.0,-0.5
3,3,2,5,0.8,0.344898,0,1.0,1.0,1.6
3,3,2,6,0.5,0.331182,0,1.0,1.0,0.8
3,3,2,7,-0.2,0.365219,1,1.0,1.0,0.5
3,3,2,8,0.8,0.373891,0,1.0,1.0,-0.2
3,3,2,9,1.6,0.429088,0,1.0,1.0,0.8
3,3,2,10,-0.8,0.331009,1,1.0,1.0,1.6
3,3,2,11,0.8,0.341147,0,1.0,1.0,-0.8
3,3,2,12,0.2,0.366521,1,-1.0,1.0,0.8
3,3,2,13,-0.2,0.382426,0,-1.0,-1.0,0.2
3,3,2,14,0.2,0.381945,0,1.0,-1.0,-0.2
3,3,2,15,0.5,0.437448,0,1.0,1.0,0.2
3,3,2,16,0.2,0.379508,0,1.0,1.0,0.5
3,3,2,17,0.5,0.379712,0,1.0,1.0,0.2
3,3,2,18,-0.8,0.299565,0,-1.0,1.0,0.5
3,3,2,19,-0.2,0.294399,0,-1.0,-1.0,-0.8
3,3,2,20,-0.2,0.377029,0,-1.0,-1.0,-0.2
3,3,2,21,0.5,0.345109,0,1.0,-1.0,-0.2
3,3,2,22,0.2,0.346306,0,1.0,1.0,0.5
3,3,2,23,0.8,0.387711,0,1.0,1.0,0.2
3,3,2,24,0.2,0.299975,0,1.0,1.0,0.8
3,3,2,25,0.2,0.309912,0,1.0,1.0,0.2
3,3,2,26,0.8,0.385287,0,1.0,1.0,0.2
3,3,2,27,0.5,0.431931,1,-1.0,1.0,0.8
3,3,2,28,0.5,0.366199,0,1.0,-1.0,0.5
3,3,2,29,-0.8,0.454105,1,1.0,1.0,0.5
3,3,2,30,-0.5,0.49873,1,1.0,1.0,-0.8
3,3,2,31,-0.8,0.65382,1,1.0,1.0,-0.5
3,3,2,32,0.8,0.497554,1,-1.0,1.0,-0.8
3,3,2,33,-0.2,0.412805,1,1.0,-1.0,0.8
3,3,2,34,-0.2,0.396409,0,-1.0,1.0,-0.2
3,3,2,35,-0.8,0.515719,1,1.0,-1.0,-0.2
3,3,2,36,-1.6,0.413194,1,1.0,1.0,-0.8
3,3,2,37,1.6,0.379742,0,1.0,1.0,-1.6
3,3,2,38,-0.5,0.38082,0,-1.0,1.0,1.6
3,3,2,39,1.6,0.404229,0,1.0,-1.0,-0.5
3,3,2,40,-0.5,0.434594,1,1.0,1.0,1.6
3,3,2,41,-0.8,0.480891,0,-1.0,1.0,-0.5
3,3,2,42,0.5,0.444285,1,-1.0,-1.0,-0.8
3,3,2,43,-0.8,0.482428,1,1.0,-1.0,0.5
3,3,2,44,-0.8,0.444794,1,1.0,1.0,-0.8
3,3,2,45,0.5,0.450172,0,1.0,1.0,-0.8
3,3,2,46,-1.6,0.407507,1,1.0,1.0,0.5
3,3,2,47,-0.5,0.429621,1,1.0,1.0,-1.6
3,3,2,48,-0.5,0.420412,1,1.0,1.0,-0.5
3,3,2,49,-0.2,0.417789,0,-1.0,1.0,-0.5
3,3,2,50,0.5,0.408867,0,1.0,-1.0,-0.2
3,3,2,51,0.2,0.359491,0,1.0,1.0,0.5
3,3,2,52,0.2,0.471265,0,1.0,1.0,0.2
3,3,2,53,0.2,0.379826,0,1.0,1.0,0.2
3,3,2,54,-1.6,0.347996,1,1.0,1.0,0.2
3,3,2,55,-0.2,0.412724,0,-1.0,1.0,-1.6
3,3,2,56,0.2,0.595509,0,1.0,-1.0,-0.2
3,3,2,57,-0.8,0.474921,1,1.0,1.0,0.2
3,3,2,58,-0.5,0.526769,1,1.0,1.0,-0.8
3,3,2,59,0.2,0.552833,1,-1.0,1.0,-0.5
3,3,2,60,-1.6,0.393797,0,-1.0,-1.0,0.2
3,3,2,62,-0.2,0.429201,0,-1.0,0.0,-0.8
3,3,2,63,-0.5,0.483255,1,1.0,-1.0,-0.2
3,3,2,64,-0.5,0.527059,1,1.0,1.0,-0.5
3,3,2,65,-0.5,0.425397,0,-1.0,1.0,-0.5
3,3,2,66,-0.2,0.567043,1,1.0,-1.0,-0.5
3,3,2,67,0.2,0.48779,1,-1.0,1.0,-0.2
3,3,2,68,0.2,0.506331,0,1.0,-1.0,0.2
3,3,2,69,0.5,0.460856,1,-1.0,1.0,0.2
3,3,2,70,-0.2,0.457682,0,-1.0,-1.0,0.5
3,3,2,71,0.5,0.415211,0,1.0,-1.0,-0.2
3,3,2,72,0.2,0.468818,0,1.0,1.0,0.5
3,3,2,73,0.2,0.432537,0,1.0,1.0,0.2
3,3,2,74,0.8,0.454071,0,1.0,1.0,0.2
3,3,2,75,-0.2,0.402685,0,-1.0,1.0,0.8
3,3,2,76,0.2,0.393559,0,1.0,-1.0,-0.2
3,3,2,77,0.5,0.480619,0,1.0,1.0,0.2
3,3,2,78,0.2,0.453567,0,1.0,1.0,0.5
3,3,2,79,1.6,0.529337,0,1.0,1.0,0.2
3,3,2,80,-0.8,0.451576,1,1.0,1.0,1.6
3,3,2,81,-0.5,0.504297,0,-1.0,1.0,-0.8
3,3,2,82,-0.2,0.563657,1,1.0,-1.0,-0.5
3,3,2,83,-0.2,0.48369,0,-1.0,1.0,-0.2
3,3,2,85,-0.2,0.573465,1,1.0,0.0,-0.5
3,3,2,87,-1.6,0.486161,1,1.0,0.0,-0.5
3,3,2,88,-1.6,0.553476,1,1.0,1.0,-1.6
3,3,2,89,0.5,0.609977,0,1.0,1.0,-1.6
3,3,2,90,-1.6,0.473395,1,1.0,1.0,0.5
3,3,2,91,0.8,0.597533,0,1.0,1.0,-1.6
3,3,2,92,-0.5,0.436216,1,1.0,1.0,0.8
3,3,2,93,0.2,0.545598,0,1.0,1.0,-0.5
3,3,2,94,0.2,0.490945,0,1.0,1.0,0.2
3,3,2,95,0.5,0.463211,0,1.0,1.0,0.2
3,3,2,96,-0.2,0.531114,1,1.0,1.0,0.5
3,3,2,97,0.5,0.493185,0,1.0,1.0,-0.2
3,3,2,98,0.2,0.544696,1,-1.0,1.0,0.5
3,3,2,99,0.5,0.506602,0,1.0,-1.0,0.2
3,3,2,100,-0.2,0.469665,0,-1.0,1.0,0.5
3,3,2,101,1.6,0.416868,0,1.0,-1.0,-0.2
3,3,2,102,0.8,0.367658,0,1.0,1.0,1.6
3,3,2,103,0.2,0.431464,0,1.0,1.0,0.8
3,3,2,104,0.2,0.389506,0,1.0,1.0,0.2
3,3,2,105,-0.5,0.349016,0,-1.0,1.0,0.2
3,3,2,106,0.2,0.333824,0,1.0,-1.0,-0.5
3,3,2,107,0.5,0.327497,0,1.0,1.0,0.2
3,3,2,108,0.8,0.257246,0,1.0,1.0,0.5
3,3,2,109,-0.2,0.245317,0,-1.0,1.0,0.8
3,3,2,110,0.5,0.299152,0,1.0,-1.0,-0.2
3,3,2,111,-0.5,0.253436,0,-1.0,1.0,0.5
3,3,2,112,-1.6,0.25008,0,-1.0,-1.0,-0.5
3,3,2,113,-0.8,0.430566,0,-1.0,-1.0,-1.6
3,3,2,114,0.8,0.429767,0,1.0,-1.0,-0.8
3,3,2,115,0.5,0.442876,0,1.0,1.0,0.8
3,3,2,116,-0.5,0.496061,1,1.0,1.0,0.5
3,3,2,117,-0.5,0.363509,0,-1.0,1.0,-0.5
3,3,2,118,0.5,0.348225,0,1.0,-1.0,-0.5
3,3,2,119,-0.2,0.47055,0,-1.0,1.0,0.5
3,3,2,120,1.6,0.401654,0,1.0,-1.0,-0.2
3,3,2,121,0.2,0.48853,0,1.0,1.0,1.6
3,3,2,122,-0.2,0.420627,0,-1.0,1.0,0.2
3,3,2,123,-0.5,0.490875,0,-1.0,-1.0,-0.2
3,3,2,124,-0.2,0.413279,0,-1.0,-1.0,-0.5
3,3,2,125,-0.2,0.421101,0,-1.0,-1.0,-0.2
3,3,2,126,-0.5,0.594728,0,-1.0,-1.0,-0.2
3,3,2,127,1.6,0.481827,0,1.0,-1.0,-0.5
3,3,2,128,-0.2,0.581589,0,-1.0,1.0,1.6
3,1,3,1,1.6,0.426334,0,1.0,0.0,-100.0
3,1,3,2,0.5,0.37636,0,1.0,1.0,1.6
3,1,3,3,-0.5,0.368654,1,1.0,1.0,0.5
3,1,3,4,0.2,0.328584,0,1.0,1.0,-0.5
3,1,3,5,-0.8,0.426844,0,-1.0,1.0,0.2
3,1,3,6,0.2,0.368849,0,1.0,-1.0,-0.8
3,1,3,7,0.5,0.38484,0,1.0,1.0,0.2
3,1,3,8,0.8,0.352259,0,1.0,1.0,0.5
3,1,3,9,-0.2,0.456851,0,-1.0,1.0,0.8
3,1,3,10,-0.2,0.309754,1,1.0,-1.0,-0.2
3,1,3,11,0.2,0.36032,0,1.0,1.0,-0.2
3,1,3,12,0.5,0.393043,0,1.0,1.0,0.2
3,1,3,13,-0.2,0.552514,0,-1.0,1.0,0.5
3,1,3,14,-0.2,0.393112,1,1.0,-1.0,-0.2
3,1,3,15,-0.5,0.408461,1,1.0,1.0,-0.2
3,1,3,16,-0.8,0.303256,0,-1.0,1.0,-0.5
3,1,3,17,-0.2,0.409982,0,-1.0,-1.0,-0.8
3,1,3,18,-0.5,0.384425,1,1.0,-1.0,-0.2
3,1,3,19,-0.2,0.407979,0,-1.0,1.0,-0.5
3,1,3,20,0.8,0.382818,0,1.0,-1.0,-0.2
3,1,3,21,0.2,0.43814,1,-1.0,1.0,0.8
3,1,3,22,0.8,0.395936,0,1.0,-1.0,0.2
3,1,3,23,-0.8,0.426775,1,1.0,1.0,0.8
3,1,3,24,1.6,0.392917,0,1.0,1.0,-0.8
3,1,3,25,-0.8,0.504272,1,1.0,1.0,1.6
3,1,3,26,-0.5,0.315099,0,-1.0,1.0,-0.8
3,1,3,27,0.5,0.397764,0,1.0,-1.0,-0.5
3,1,3,28,0.2,0.365282,0,1.0,1.0,0.5
3,1,3,29,-0.2,0.509823,1,1.0,1.0,0.2
3,1,3,30,-0.5,0.400711,0,-1.0,1.0,-0.2
3,1,3,31,-0.8,0.439413,1,1.0,-1.0,-0.5
3,1,3,32,-0.5,0.508648,1,1.0,1.0,-0.8
3,1,3,33,-0.5,0.519379,0,-1.0,1.0,-0.5
3,1,3,34,-0.2,0.37764,0,-1.0,-1.0,-0.5
3,1,3,35,-0.8,0.481471,1,1.0,-1.0,-0.2
3,1,3,36,0.5,0.540803,1,-1.0,1.0,-0.8
3,1,3,37,1.6,0.382288,0,1.0,-1.0,0.5
3,1,3,38,-0.5,0.45363,1,1.0,1.0,1.6
3,1,3,39,0.5,0.410436,0,1.0,1.0,-0.5
3,1,3,40,-1.6,0.432979,1,1.0,1.0,0.5
3,1,3,41,0.2,0.454749,0,1.0,1.0,-1.6
3,1,3,42,0.2,0.42725,1,-1.0,1.0,0.2
3,1,3,43,-1.6,0.465399,1,1.0,-1.0,0.2
3,1,3,44,-1.6,0.517988,1,1.0,1.0,-1.6
3,1,3,45,-0.5,0.664234,0,-1.0,1.0,-1.6
3,1,3,46,0.5,0.437092,0,1.0,-1.0,-0.5
3,1,3,47,-0.5,0.474328,1,1.0,1.0,0.5
3,1,3,48,0.2,0.390338,0,1.0,1.0,-0.5
3,1,3,49,0.2,0.43769,1,-1.0,1.0,0.2
3,1,3,50,0.2,0.459075,0,1.0,-1.0,0.2
3,1,3,51,-0.2,0.591645,1,1.0,1.0,0.2
3,1,3,52,-0.2,0.463159,0,-1.0,1.0,-0.2
3,1,3,53,-0.2,0.444042,0,-1.0,-1.0,-0.2
3,1,3,54,1.6,0.361273,0,1.0,-1.0,-0.2
3,1,3,55,-1.6,0.433813,1,1.0,1.0,1.6
3,1,3,56,-0.2,0.439414,0,-1.0,1.0,-1.6
3,1,3,57,0.5,0.492896,0,1.0,-1.0,-0.2
3,1,3,58,0.2,0.616139,0,1.0,1.0,0.5
3,1,3,59,-0.5,0.598212,1,1.0,1.0,0.2
3,1,3,60,0.8,0.445272,0,1.0,1.0,-0.5
3,1,3,61,-0.8,0.602404,0,-1.0,1.0,0.8
3,1,3,62,-0.2,0.480925,1,1.0,-1.0,-0.8
3,1,3,63,0.8,0.509105,0,1.0,1.0,-0.2
3,1,3,64,0.2,0.671899,0,1.0,1.0,0.8
3,1,3,65,0.2,0.555817,0,1.0,1.0,0.2
3,1,3,66,-0.2,0.492503,0,-1.0,1.0,0.2
3,1,3,67,-0.5,0.656178,0,-1.0,-1.0,-0.2
3,1,3,68,0.8,0.484767,0,1.0,-1.0,-0.5
3,1,3,69,0.5,0.463945,0,1.0,1.0,0.8
3,1,3,70,-0.2,0.429064,0,-1.0,1.0,0.5
3,1,3,71,0.5,0.323022,0,1.0,-1.0,-0.2
3,1,3,72,-0.2,0.548902,0,-1.0,1.0,0.5
3,1,3,73,-0.2,0.421694,0,-1.0,-1.0,-0.2
3,1,3,74,0.5,0.491723,0,1.0,-1.0,-0.2
3,1,3,75,-0.8,0.422946,0,-1.0,1.0,0.5
3,1,3,76,0.8,0.461238,0,1.0,-1.0,-0.8
3,1,3,77,-1.6,0.713904,0,-1.0,1.0,0.8
3,1,3,78,-0.5,0.444709,0,-1.0,-1.0,-1.6
3,1,3,79,-1.6,0.481936,1,1.0,-1.0,-0.5
3,1,3,80,-0.2,0.493592,0,-1.0,1.0,-1.6
3,1,3,81,0.5,0.46473,0,1.0,-1.0,-0.2
3,1,3,82,0.8,0.557729,0,1.0,1.0,0.5
3,1,3,83,0.2,0.430418,0,1.0,1.0,0.8
3,1,3,84,0.5,0.356317,0,1.0,1.0,0.2
3,1,3,85,0.2,0.500973,0,1.0,1.0,0.5
3,1,3,86,0.5,0.399627,0,1.0,1.0,0.2
3,1,3,87,-1.6,0.294717,0,-1.0,1.0,0.5
3,1,3,88,-0.2,0.393832,0,-1.0,-1.0,-1.6
3,1,3,89,-0.5,0.36131,0,-1.0,-1.0,-0.2
3,1,3,90,-0.5,0.401931,0,-1.0,-1.0,-0.5
3,1,3,91,1.6,0.400789,0,1.0,-1.0,-0.5
3,1,3,92,-0.5,0.49524,0,-1.0,1.0,1.6
3,1,3,94,-0.5,0.481339,1,1.0,0.0,0.2
3,1,3,95,0.2,0.493393,0,1.0,1.0,-0.5
3,1,3,96,1.6,0.528885,0,1.0,1.0,0.2
3,1,3,97,-0.8,0.394985,1,1.0,1.0,1.6
3,1,3,98,0.8,0.354648,0,1.0,1.0,-0.8
3,1,3,99,-0.8,0.386983,1,1.0,1.0,0.8
3,1,3,100,-0.5,0.714398,1,1.0,1.0,-0.8
3,1,3,101,0.2,0.509169,0,1.0,1.0,-0.5
3,1,3,102,-0.8,0.663977,0,-1.0,1.0,0.2
3,1,3,103,-0.8,0.500761,1,1.0,-1.0,-0.8
3,1,3,104,0.2,0.495525,0,1.0,1.0,-0.8
3,1,3,105,-1.6,0.434676,1,1.0,1.0,0.2
3,1,3,106,1.6,0.416304,0,1.0,1.0,-1.6
3,1,3,107,0.2,0.47025,0,1.0,1.0,1.6
3,1,3,108,-0.2,0.450294,1,1.0,1.0,0.2
3,1,3,109,0.5,0.454865,0,1.0,1.0,-0.2
3,1,3,110,0.8,0.459662,0,1.0,1.0,0.5
3,1,3,111,-0.2,0.408484,1,1.0,1.0,0.8
3,1,3,112,0.2,0.623235,0,1.0,1.0,-0.2
3,1,3,113,0.2,0.501091,0,1.0,1.0,0.2
3,1,3,114,0.5,0.448003,0,1.0,1.0,0.2
3,1,3,115,0.2,0.677218,0,1.0,1.0,0.5
3,1,3,116,-0.2,0.537394,1,1.0,1.0,0.2
3,1,3,117,0.5,0.402713,0,1.0,1.0,-0.2
3,1,3,118,-0.5,0.529526,1,1.0,1.0,0.5
3,1,3,119,0.5,0.347674,0,1.0,1.0,-0.5
3,1,3,120,1.6,0.405039,0,1.0,1.0,0.5
3,1,3,121,-0.5,0.443576,1,1.0,1.0,1.6
3,1,3,122,0.5,0.385116,0,1.0,1.0,-0.5
3,1,3,123,0.2,0.432525,0,1.0,1.0,0.5
3,1,3,124,-0.2,0.42171,1,1.0,1.0,0.2
3,1,3,125,-0.2,0.363778,0,-1.0,1.0,-0.2
3,1,3,126,0.8,0.33242,0,1.0,-1.0,-0.2
3,1,3,127,0.8,0.40609,0,1.0,1.0,0.8
3,1,3,128,0.5,0.388705,0,1.0,1.0,0.8
3,2,3,1,-1.6,0.382874,1,1.0,0.0,-100.0
3,2,3,2,1.6,0.366358,0,1.0,1.0,-1.6
3,2,3,3,1.6,0.430222,0,1.0,1.0,1.6
3,2,3,4,0.5,0.340382,0,1.0,1.0,1.6
3,2,3,5,1.6,0.38972,0,1.0,1.0,0.5
3,2,3,6,0.2,0.445033,1,-1.0,1.0,1.6
3,2,3,7,-0.8,0.498334,1,1.0,-1.0,0.2
3,2,3,8,0.2,0.453886,0,1.0,1.0,-0.8
3,2,3,9,0.5,0.378646,0,1.0,1.0,0.2
3,2,3,10,0.5,0.402677,0,1.0,1.0,0.5
3,2,3,11,0.8,0.529464,0,1.0,1.0,0.5
3,2,3,12,0.5,0.371441,0,1.0,1.0,0.8
3,2,3,13,0.2,0.363481,0,1.0,1.0,0.5
3,2,3,14,-0.5,0.444099,0,-1.0,1.0,0.2
3,2,3,15,-0.2,0.38552,0,-1.0,-1.0,-0.5
3,2,3,16,0.5,0.424941,0,1.0,-1.0,-0.2
3,2,3,17,-0.2,0.518849,1,1.0,1.0,0.5
3,2,3,18,-0.8,0.360849,1,1.0,1.0,-0.2
3,2,3,19,0.8,0.457815,0,1.0,1.0,-0.8
3,2,3,20,-0.2,0.34242,1,1.0,1.0,0.8
3,2,3,21,-0.5,0.423872,0,-1.0,1.0,-0.2
3,2,3,22,-1.6,0.397831,1,1.0,-1.0,-0.5
3,2,3,23,0.2,0.557231,1,-1.0,1.0,-1.6
3,2,3,24,-0.2,0.373975,0,-1.0,-1.0,0.2
3,2,3,25,-0.2,0.382215,0,-1.0,-1.0,-0.2
3,2,3,26,-0.2,0.413285,1,1.0,-1.0,-0.2
3,2,3,27,0.2,0.508092,1,-1.0,1.0,-0.2
3,2,3,28,-0.5,0.374767,1,1.0,-1.0,0.2
3,2,3,29,0.2,0.406996,1,-1.0,1.0,-0.5
3,2,3,30,-1.6,0.373581,1,1.0,-1.0,0.2
3,2,3,31,-0.8,0.397719,1,1.0,1.0,-1.6
3,2,3,32,-0.5,0.541099,1,1.0,1.0,-0.8
3,2,3,33,0.5,0.446623,0,1.0,1.0,-0.5
3,2,3,34,0.2,0.419743,1,-1.0,1.0,0.5
3,2,3,35,0.5,0.401857,1,-1.0,-1.0,0.2
3,2,3,36,0.5,0.376639,0,1.0,-1.0,0.5
3,2,3,37,0.8,0.4248,0,1.0,1.0,0.5
3,2,3,38,-0.8,0.518755,1,1.0,1.0,0.8
3,2,3,39,0.2,0.368928,0,1.0,1.0,-0.8
3,2,3,40,0.5,0.440866,0,1.0,1.0,0.2
3,2,3,41,0.5,0.4303,0,1.0,1.0,0.5
3,2,3,42,0.2,0.436426,0,1.0,1.0,0.5
3,2,3,43,-1.6,0.521637,1,1.0,1.0,0.2
3,2,3,44,-0.5,0.395964,0,-1.0,1.0,-1.6
3,2,3,45,-0.2,0.411175,0,-1.0,-1.0,-0.5
3,2,3,46,0.2,0.489807,1,-1.0,-1.0,-0.2
3,2,3,47,-0.5,0.397281,0,-1.0,-1.0,0.2
3,2,3,48,-0.8,0.428611,1,1.0,-1.0,-0.5
3,2,3,49,1.6,0.37077,0,1.0,1.0,-0.8
3,2,3,50,-0.5,0.394579,1,1.0,1.0,1.6
3,2,3,51,1.6,0.338209,0,1.0,1.0,-0.5
3,2,3,52,0.2,0.323582,0,1.0,1.0,1.6
3,2,3,53,-0.5,0.413552,0,-1.0,1.0,0.2
3,2,3,54,0.2,0.452359,0,1.0,-1.0,-0.5
3,2,3,55,0.5,0.544979,1,-1.0,1.0,0.2
3,2,3,56,-0.5,0.498473,1,1.0,-1.0,0.5
3,2,3,57,-0.8,0.389699,1,1.0,1.0,-0.5
3,2,3,58,0.2,0.429211,0,1.0,1.0,-0.8
3,2,3,59,-0.5,0.547155,1,1.0,1.0,0.2
3,2,3,60,-0.2,0.524414,1,1.0,1.0,-0.5
3,2,3,61,1.6,0.422732,0,1.0,1.0,-0.2
3,2,3,62,-0.2,0.444732,1,1.0,1.0,1.6
3,2,3,63,0.8,0.450116,0,1.0,1.0,-0.2
3,2,3,64,-0.2,0.542834,1,1.0,1.0,0.8
3,2,3,65,-1.6,0.48016,1,1.0,1.0,-0.2
3,2,3,66,-0.2,0.476382,0,-1.0,1.0,-1.6
3,2,3,67,-0.8,0.416287,1,1.0,-1.0,-0.2
3,2,3,68,1.6,0.406409,0,1.0,1.0,-0.8
3,2,3,69,-0.2,0.44505,0,-1.0,1.0,1.6
3,2,3,70,0.2,0.434418,0,1.0,-1.0,-0.2
3,2,3,71,-0.5,0.3519,0,-1.0,1.0,0.2
3,2,3,72,0.8,0.400586,0,1.0,-1.0,-0.5
3,2,3,73,-0.8,0.503529,1,1.0,1.0,0.8
3,2,3,74,0.5,0.385981,0,1.0,1.0,-0.8
3,2,3,75,-0.2,0.393264,1,1.0,1.0,0.5
3,2,3,76,0.8,0.29673,0,1.0,1.0,-0.2
3,2,3,77,0.2,0.50026,1,-1.0,1.0,0.8
3,2,3,78,0.8,0.390955,0,1.0,-1.0,0.2
3,2,3,79,-0.2,0.382267,1,1.0,1.0,0.8
3,2,3,80,-0.2,0.55834,0,-1.0,1.0,-0.2
3,2,3,81,0.2,0.415036,1,-1.0,-1.0,-0.2
3,2,3,82,0.8,0.373912,0,1.0,-1.0,0.2
3,2,3,83,-0.8,0.397793,1,1.0,1.0,0.8
3,2,3,84,-1.6,0.405373,1,1.0,1.0,-0.8
3,2,3,85,-0.2,0.404067,0,-1.0,1.0,-1.6
3,2,3,86,0.2,0.530774,0,1.0,-1.0,-0.2
3,2,3,87,0.8,0.356897,0,1.0,1.0,0.2
3,2,3,88,-0.5,0.357694,0,-1.0,1.0,0.8
3,2,3,89,0.2,0.286307,0,1.0,-1.0,-0.5
3,2,3,90,0.5,0.313657,0,1.0,1.0,0.2
3,2,3,91,-0.2,0.28419,0,-1.0,1.0,0.5
3,2,3,92,-0.8,0.415566,1,1.0,-1.0,-0.2
3,2,3,93,-0.2,0.509657,0,-1.0,1.0,-0.8
3,2,3,94,-1.6,0.448325,1,1.0,-1.0,-0.2
3,2,3,95,0.5,0.429867,0,1.0,1.0,-1.6
3,2,3,96,-0.8,0.579667,1,1.0,1.0,0.5
3,2,3,97,-0.5,0.403827,1,1.0,1.0,-0.8
3,2,3,98,0.2,0.442619,1,-1.0,1.0,-0.5
3,2,3,99,0.2,0.432088,0,1.0,-1.0,0.2
3,2,3,100,-0.2,0.565769,0,-1.0,1.0,0.2
3,2,3,101,0.2,0.413395,0,1.0,-1.0,-0.2
3,2,3,102,0.5,0.396283,0,1.0,1.0,0.2
3,2,3,103,0.5,0.419613,0,1.0,1.0,0.5
3,2,3,105,0.2,0.414327,0,1.0,0.0,-0.2
3,2,3,106,-0.5,0.372989,0,-1.0,1.0,0.2
3,2,3,107,0.5,0.413309,0,1.0,-1.0,-0.5
3,2,3,108,-0.2,0.387885,0,-1.0,1.0,0.5
3,2,3,109,-0.8,0.363471,0,-1.0,-1.0,-0.2
3,2,3,110,-0.5,0.492072,0,-1.0,-1.0,-0.8
3,2,3,111,-0.5,0.543965,0,-1.0,-1.0,-0.5
3,2,3,112,-1.6,0.464685,1,1.0,-1.0,-0.5
3,2,3,113,-0.5,0.461567,0,-1.0,1.0,-1.6
3,2,3,114,0.8,0.418182,0,1.0,-1.0,-0.5
3,2,3,115,0.2,0.42423,0,1.0,1.0,0.8
3,2,3,116,0.8,0.326269,0,1.0,1.0,0.2
3,2,3,117,-0.5,0.400207,1,1.0,1.0,0.8
3,2,3,118,0.8,0.52709,0,1.0,1.0,-0.5
3,2,3,119,-0.5,0.361064,1,1.0,1.0,0.8
3,2,3,120,1.6,0.345895,0,1.0,1.0,-0.5
3,2,3,121,-0.2,0.363253,0,-1.0,1.0,1.6
3,2,3,122,-0.5,0.388027,1,1.0,-1.0,-0.2
3,2,3,123,0.5,0.371255,0,1.0,1.0,-0.5
3,2,3,124,-0.2,0.411434,1,1.0,1.0,0.5
3,2,3,125,0.2,0.322036,0,1.0,1.0,-0.2
3,2,3,126,0.5,0.260149,0,1.0,1.0,0.2
3,2,3,127,0.5,0.328997,0,1.0,1.0,0.5
3,2,3,128,-0.2,0.362899,0,-1.0,1.0,0.5
